timestamp,ECG_I,ECG_II,ECG_III,AccX,AccY,AccZ,AccMag
4556.0,1.93991,1.924729,-0.015181,0.4707,0.7453,10.3558,10.39324897325182
4566.0,1.981115,1.962681,-0.018434,0.4707,0.8238,10.3166,10.360137088378705
4576.0,1.974609,1.951838,-0.022771,0.4707,0.7845,10.3166,10.357086187726738
4586.0,1.924729,1.909548,-0.015181,0.5099,0.8238,10.3166,10.361992086949304
4596.0,1.907379,1.868343,-0.039037,0.5099,0.863,10.3166,10.365182225605103
4606.0,1.846656,1.783763,-0.062893,0.4707,0.8238,10.3558,10.399172975289911
4616.0,1.837981,1.781594,-0.056386,0.5492,0.7845,10.3166,10.36095055726066
4626.0,1.837981,1.781594,-0.056386,0.4707,0.8238,10.3166,10.360137088378705
4636.0,1.836896,1.768582,-0.068314,0.4707,0.7845,10.2774,10.318040002829996
4646.0,1.853162,1.794607,-0.058555,0.4707,0.7061,10.3166,10.351442955453118
4656.0,1.836896,1.770751,-0.066146,0.4315,0.7453,10.3166,10.35248278916705
4666.0,1.849909,1.790269,-0.059639,0.4707,0.7453,10.3558,10.39324897325182
4676.0,1.844487,1.793522,-0.050965,0.4707,0.7061,10.3166,10.351442955453118
4686.0,1.83039,1.769666,-0.060724,0.4707,0.7453,10.395,10.432308257523834
4696.0,1.727377,1.681834,-0.045543,0.5099,0.7845,10.3558,10.397982107120592
4706.0,1.767498,1.737136,-0.030362,0.5099,0.7453,10.3166,10.356046816232533
4716.0,2.305337,2.395339,0.090001,0.4707,0.8238,10.3558,10.399172975289911
4726.0,2.739079,2.959203,0.220124,0.5099,0.7453,10.3166,10.356046816232533
4736.0,2.314012,2.447388,0.133376,0.4707,0.8238,10.395,10.438210092252406
4746.0,1.785932,1.727377,-0.058555,0.5492,0.8238,10.3166,10.364000320339631
4756.0,1.664484,1.577736,-0.086748,0.5099,0.8238,10.3166,10.361992086949304
4766.0,1.781594,1.708943,-0.072652,0.5099,0.7845,10.2774,10.31990256833852
4776.0,1.796775,1.731714,-0.065061,0.4707,0.8238,10.3558,10.399172975289911
4786.0,1.783763,1.715449,-0.068314,0.4707,0.7845,10.395,10.435182017578802
4796.0,1.808703,1.740389,-0.068314,0.4707,0.7845,10.3166,10.357086187726738
4806.0,1.7881,1.723039,-0.065061,0.5099,0.7845,10.3558,10.397982107120592
4816.0,1.79786,1.734967,-0.062893,0.4707,0.7061,10.3558,10.390511505214747
4826.0,1.795691,1.739304,-0.056386,0.5099,0.7453,10.3166,10.356046816232533
4836.0,1.784847,1.726292,-0.058555,0.5099,0.7845,10.3166,10.358941732628868
4846.0,1.813041,1.753401,-0.059639,0.4707,0.7061,10.3166,10.351442955453118
4856.0,1.793522,1.731714,-0.061808,0.5099,0.7061,10.3166,10.353299511749864
4866.0,1.801113,1.745811,-0.055302,0.4707,0.7845,10.2774,10.318040002829996
4876.0,1.803281,1.751232,-0.052049,0.5099,0.8238,10.3166,10.361992086949304
4886.0,1.801113,1.742558,-0.058555,0.4707,0.7845,10.3166,10.357086187726738
4896.0,1.862921,1.816294,-0.046627,0.5884,0.8238,10.3558,10.405164805998991
4906.0,1.89003,1.852077,-0.037952,0.5492,0.863,10.3166,10.367189841032138
4916.0,1.936657,1.919307,-0.01735,0.5099,0.8238,10.3166,10.361992086949304
4926.0,1.980031,1.972441,-0.00759,0.5099,0.7845,10.3166,10.358941732628868
4936.0,2.001718,2.002803,0.001084,0.5099,0.7061,10.3558,10.392361082064076
4946.0,2.036418,2.054852,0.018434,0.4707,0.7061,10.3166,10.351442955453118
4956.0,2.030996,2.037502,0.006506,0.4315,0.7453,10.2774,10.313419176005599
4966.0,2.038586,2.047261,0.008675,0.3923,0.7453,10.3166,10.35092299942377
4976.0,2.023405,2.03208,0.008675,0.4707,0.6669,10.3166,10.348842914065319
4986.0,1.987622,1.980031,-0.00759,0.4315,0.7061,10.3166,10.349734538624649
4996.0,1.960513,1.961597,0.001084,0.4315,0.8238,10.3558,10.397472401021318
5006.0,1.895451,1.878102,-0.01735,0.4707,0.7845,10.3166,10.357086187726738
5016.0,1.857499,1.831475,-0.026025,0.5099,0.7845,10.3558,10.397982107120592
5026.0,1.809787,1.770751,-0.039037,0.5099,0.7453,10.3166,10.356046816232533
5036.0,1.751232,1.706774,-0.044459,0.5099,0.7845,10.2774,10.31990256833852
5046.0,1.741473,1.694846,-0.046627,0.4707,0.7845,10.2774,10.318040002829996
5056.0,1.725208,1.677496,-0.047712,0.4707,0.8238,10.3166,10.360137088378705
5066.0,1.73822,1.694846,-0.043374,0.5099,0.8238,10.3166,10.361992086949304
5076.0,1.740389,1.699183,-0.041205,0.5492,0.8238,10.2774,10.324980282789891
5086.0,1.729545,1.684002,-0.045543,0.5099,0.8238,10.3166,10.361992086949304
5096.0,1.749064,1.71328,-0.035784,0.5099,0.8238,10.3558,10.401021011900706
5106.0,1.731714,1.698099,-0.033615,0.5099,0.8238,10.3558,10.401021011900706
5116.0,1.753401,1.716533,-0.036868,0.5492,0.7453,10.395,10.436144773334643
5126.0,1.753401,1.718702,-0.034699,0.5099,0.7453,10.3558,10.395098063029517
5136.0,1.73822,1.706774,-0.031446,0.4707,0.7061,10.3166,10.351442955453118
5146.0,1.753401,1.73822,-0.015181,0.4707,0.6669,10.3558,10.387921242481578
5156.0,1.743642,1.723039,-0.020603,0.4707,0.7061,10.3558,10.390511505214747
5166.0,1.75557,1.731714,-0.023856,0.4707,0.7845,10.3166,10.357086187726738
5176.0,1.765329,1.737136,-0.028193,0.5099,0.7453,10.3558,10.395098063029517
5186.0,1.753401,1.725208,-0.028193,0.4707,0.7453,10.3558,10.39324897325182
5196.0,1.771835,1.753401,-0.018434,0.4707,0.7453,10.395,10.432308257523834
5206.0,1.75557,1.733883,-0.021687,0.5099,0.7845,10.3166,10.358941732628868
5216.0,1.774004,1.749064,-0.02494,0.4707,0.7845,10.3166,10.357086187726738
5226.0,1.78051,1.751232,-0.029278,0.5099,0.8238,10.3166,10.361992086949304
5236.0,1.766413,1.741473,-0.02494,0.4707,0.8238,10.3166,10.360137088378705
5246.0,1.78051,1.771835,-0.008675,0.5099,0.8238,10.3558,10.401021011900706
5256.0,1.766413,1.753401,-0.013012,0.5099,0.7845,10.3166,10.358941732628868
5266.0,1.776173,1.760992,-0.015181,0.4707,0.7453,10.3166,10.354190752540731
5276.0,1.781594,1.776173,-0.005422,0.5099,0.7453,10.3558,10.395098063029517
5286.0,1.771835,1.753401,-0.018434,0.4707,0.7061,10.3558,10.390511505214747
5296.0,1.790269,1.781594,-0.008675,0.4707,0.7453,10.3166,10.354190752540731
5306.0,1.778341,1.765329,-0.013012,0.4315,0.7453,10.3166,10.35248278916705
5316.0,1.784847,1.777257,-0.00759,0.5099,0.7845,10.3558,10.397982107120592
5326.0,1.7881,1.781594,-0.006506,0.4707,0.7061,10.3166,10.351442955453118
5336.0,1.781594,1.767498,-0.014097,0.4707,0.7061,10.3558,10.390511505214747
5346.0,1.802197,1.790269,-0.011928,0.4707,0.7453,10.3558,10.39324897325182
5356.0,1.785932,1.776173,-0.009759,0.4707,0.7453,10.3166,10.354190752540731
5366.0,1.798944,1.784847,-0.014097,0.4707,0.8238,10.3166,10.360137088378705
5376.0,1.802197,1.794607,-0.00759,0.4707,0.7845,10.3558,10.396133530308276
5386.0,1.789185,1.777257,-0.011928,0.4707,0.863,10.3558,10.402351711512162
5396.0,1.806534,1.800028,-0.006506,0.5492,0.7453,10.2774,10.319013687848273
5406.0,1.793522,1.784847,-0.008675,0.5099,0.8238,10.3166,10.361992086949304
5416.0,1.800028,1.802197,0.002169,0.4707,0.7845,10.3558,10.396133530308276
5426.0,1.80545,1.806534,0.001084,0.4707,0.7845,10.2774,10.318040002829996
5436.0,1.795691,1.794607,-0.001084,0.4707,0.7061,10.3166,10.351442955453118
5446.0,1.809787,1.821715,0.011928,0.4707,0.7453,10.2774,10.315133607472083
5456.0,1.790269,1.801113,0.010844,0.4707,0.7845,10.3166,10.357086187726738
5466.0,1.802197,1.809787,0.00759,0.4707,0.7453,10.3558,10.39324897325182
5476.0,1.808703,1.813041,0.004337,0.4707,0.7453,10.395,10.432308257523834
5486.0,1.796775,1.798944,0.002169,0.4707,0.7453,10.3558,10.39324897325182
5496.0,1.813041,1.8228,0.009759,0.5099,0.7453,10.3558,10.395098063029517
5506.0,1.802197,1.804366,0.002169,0.4707,0.7453,10.3166,10.354190752540731
5516.0,1.802197,1.810872,0.008675,0.4707,0.7453,10.2774,10.315133607472083
5526.0,1.807619,1.819547,0.011928,0.5099,0.7845,10.3166,10.358941732628868
5536.0,1.818462,1.824968,0.006506,0.5492,0.7845,10.2774,10.321918990672229
5546.0,1.87268,1.905211,0.032531,0.5099,0.8238,10.3558,10.401021011900706
5556.0,1.895451,1.938826,0.043374,0.4707,0.7845,10.3166,10.357086187726738
5566.0,1.924729,1.980031,0.055302,0.5099,0.7845,10.2774,10.31990256833852
5576.0,1.924729,1.985453,0.060724,0.4707,0.8238,10.3558,10.399172975289911
5586.0,1.882439,1.91497,0.032531,0.4707,0.8238,10.3166,10.360137088378705
5596.0,1.858583,1.892198,0.033615,0.4707,0.7061,10.3166,10.351442955453118
5606.0,1.804366,1.80545,0.001084,0.4707,0.7845,10.3166,10.357086187726738
5616.0,1.781594,1.7881,0.006506,0.4707,0.7061,10.2774,10.312375403368518
5626.0,1.794607,1.802197,0.00759,0.4315,0.7453,10.3558,10.391547429521745
5636.0,1.782679,1.784847,0.002169,0.4707,0.7061,10.3558,10.390511505214747
5646.0,1.802197,1.809787,0.00759,0.4707,0.7453,10.3558,10.39324897325182
5656.0,1.7881,1.794607,0.006506,0.5099,0.7453,10.395,10.43415042540599
5666.0,1.796775,1.809787,0.013012,0.5099,0.7845,10.2774,10.31990256833852
5676.0,1.802197,1.814125,0.011928,0.4707,0.7453,10.2774,10.315133607472083
5686.0,1.781594,1.785932,0.004337,0.5099,0.7453,10.3558,10.395098063029517
5696.0,1.676412,1.692677,0.016265,0.4707,0.8238,10.3166,10.360137088378705
5706.0,1.729545,1.754485,0.02494,0.5099,0.7453,10.3166,10.356046816232533
5716.0,2.263048,2.413773,0.150725,0.4707,0.7453,10.3166,10.354190752540731
5726.0,2.709802,2.978722,0.26892,0.4707,0.7453,10.395,10.432308257523834
5736.0,2.282566,2.45281,0.170244,0.4315,0.7453,10.2774,10.313419176005599
5746.0,1.745811,1.739304,-0.006506,0.4315,0.7453,10.3166,10.35248278916705
5756.0,1.626532,1.598338,-0.028193,0.4315,0.7453,10.3558,10.391547429521745
5766.0,1.745811,1.716533,-0.029278,0.4315,0.8238,10.3558,10.397472401021318
5776.0,1.765329,1.747979,-0.01735,0.4707,0.8238,10.3166,10.360137088378705
5786.0,1.744726,1.724123,-0.020603,0.5492,0.863,10.3558,10.406199271588067
5796.0,1.766413,1.747979,-0.018434,0.5099,0.863,10.3166,10.365182225605103
5806.0,1.753401,1.737136,-0.016265,0.5492,0.8238,10.3166,10.364000320339631
5816.0,1.759907,1.749064,-0.010844,0.5099,0.7845,10.3166,10.358941732628868
5826.0,1.766413,1.752317,-0.014097,0.5099,0.7061,10.3558,10.392361082064076
5836.0,1.756654,1.731714,-0.02494,0.5099,0.7061,10.3166,10.353299511749864
5846.0,1.775088,1.757738,-0.01735,0.4707,0.7061,10.3166,10.351442955453118
5856.0,1.769666,1.745811,-0.023856,0.5099,0.6669,10.3558,10.389771280446938
5866.0,1.766413,1.754485,-0.011928,0.5099,0.6669,10.3558,10.389771280446938
5876.0,1.770751,1.766413,-0.004337,0.4707,0.7061,10.3166,10.351442955453118
5886.0,1.758823,1.752317,-0.006506,0.5099,0.7061,10.3558,10.392361082064076
5896.0,1.827137,1.83039,0.003253,0.5099,0.7453,10.3558,10.395098063029517
5906.0,1.862921,1.867258,0.004337,0.5099,0.7845,10.3558,10.397982107120592
5916.0,1.905211,1.923645,0.018434,0.5099,0.7453,10.2774,10.316996697682907
5926.0,1.948585,1.9822,0.033615,0.5099,0.7845,10.3166,10.358941732628868
5936.0,1.972441,2.006056,0.033615,0.4707,0.8238,10.2774,10.321102445475484
5946.0,2.00714,2.051599,0.044459,0.4707,0.7845,10.3166,10.357086187726738
5956.0,2.00714,2.054852,0.047712,0.4707,0.7845,10.3558,10.396133530308276
5966.0,1.99955,2.04943,0.04988,0.5099,0.8238,10.3166,10.361992086949304
5976.0,1.99955,2.036418,0.036868,0.5099,0.7845,10.3558,10.397982107120592
5986.0,1.955091,1.9822,0.027109,0.5099,0.7845,10.2774,10.31990256833852
5996.0,1.925813,1.956175,0.030362,0.5099,0.7845,10.3166,10.358941732628868
6006.0,1.868343,1.888945,0.020603,0.4707,0.7845,10.3166,10.357086187726738
6016.0,1.832559,1.833643,0.001084,0.4315,0.7845,10.3558,10.394432458773302
6026.0,1.790269,1.781594,-0.008675,0.4707,0.7453,10.3166,10.354190752540731
6036.0,1.731714,1.706774,-0.02494,0.4707,0.7061,10.3166,10.351442955453118
6046.0,1.714364,1.694846,-0.019518,0.4707,0.7453,10.3166,10.354190752540731
6056.0,1.706774,1.686171,-0.020603,0.4707,0.7453,10.3166,10.354190752540731
6066.0,1.71328,1.694846,-0.018434,0.5492,0.7453,10.3558,10.397099901895722
6076.0,1.727377,1.707858,-0.019518,0.4707,0.7845,10.3166,10.357086187726738
6086.0,1.710027,1.693762,-0.016265,0.5099,0.7845,10.3166,10.358941732628868
6096.0,1.731714,1.723039,-0.008675,0.5099,0.7453,10.3166,10.356046816232533
6106.0,1.724123,1.708943,-0.015181,0.4707,0.7845,10.3166,10.357086187726738
6116.0,1.731714,1.710027,-0.021687,0.5099,0.8238,10.3166,10.361992086949304
6126.0,1.742558,1.726292,-0.016265,0.4707,0.8238,10.3558,10.399172975289911
6136.0,1.727377,1.71328,-0.014097,0.5099,0.7453,10.3166,10.356046816232533
6146.0,1.751232,1.739304,-0.011928,0.5099,0.7845,10.3166,10.358941732628868
6156.0,1.739304,1.725208,-0.014097,0.4707,0.7061,10.3166,10.351442955453118
6166.0,1.741473,1.732798,-0.008675,0.4707,0.7453,10.3166,10.354190752540731
6176.0,1.751232,1.746895,-0.004337,0.4707,0.7453,10.3558,10.39324897325182
6186.0,1.741473,1.727377,-0.014097,0.4707,0.7453,10.2774,10.315133607472083
6196.0,1.76316,1.752317,-0.010844,0.5492,0.7061,10.3166,10.355309430915137
6206.0,1.746895,1.739304,-0.00759,0.5099,0.7453,10.2774,10.316996697682907
6216.0,1.756654,1.745811,-0.010844,0.5099,0.7453,10.3166,10.356046816232533
6226.0,1.76316,1.766413,0.003253,0.5099,0.7453,10.2774,10.316996697682907
6236.0,1.753401,1.745811,-0.00759,0.4707,0.8238,10.3166,10.360137088378705
6246.0,1.769666,1.768582,-0.001084,0.5099,0.7845,10.3558,10.397982107120592
6256.0,1.760992,1.759907,-0.001084,0.4707,0.7453,10.3558,10.39324897325182
6266.0,1.76316,1.766413,0.003253,0.5099,0.7453,10.3166,10.356046816232533
6276.0,1.772919,1.781594,0.008675,0.5099,0.7453,10.3558,10.395098063029517
6286.0,1.766413,1.757738,-0.008675,0.4707,0.7453,10.3166,10.354190752540731
6296.0,1.78051,1.782679,0.002169,0.5099,0.7845,10.3166,10.358941732628868
6306.0,1.769666,1.769666,0.0,0.4707,0.7453,10.3166,10.354190752540731
6316.0,1.777257,1.778341,0.001084,0.5099,0.7061,10.3558,10.392361082064076
6326.0,1.781594,1.790269,0.008675,0.5492,0.7845,10.3166,10.36095055726066
6336.0,1.770751,1.771835,0.001084,0.5492,0.7453,10.2774,10.319013687848273
6346.0,1.790269,1.794607,0.004337,0.4707,0.7453,10.3558,10.39324897325182
6356.0,1.78051,1.784847,0.004337,0.5099,0.7453,10.3558,10.395098063029517
6366.0,1.782679,1.790269,0.00759,0.5099,0.7061,10.3166,10.353299511749864
6376.0,1.794607,1.802197,0.00759,0.5099,0.7845,10.3558,10.397982107120592
6386.0,1.78051,1.781594,0.001084,0.5099,0.7453,10.3166,10.356046816232533
6396.0,1.79786,1.801113,0.003253,0.4707,0.7453,10.3558,10.39324897325182
6406.0,1.787016,1.791353,0.004337,0.5492,0.7061,10.3166,10.355309430915137
6416.0,1.793522,1.800028,0.006506,0.4707,0.7453,10.3166,10.354190752540731
6426.0,1.802197,1.809787,0.00759,0.5492,0.7453,10.3166,10.358056202299734
6436.0,1.7881,1.790269,0.002169,0.5492,0.7061,10.3166,10.355309430915137
6446.0,1.807619,1.814125,0.006506,0.5884,0.8238,10.2381,10.288029578592782
6456.0,1.796775,1.798944,0.002169,0.5492,0.7845,10.3558,10.399983390852123
6466.0,1.800028,1.80545,0.005422,0.5099,0.8238,10.3166,10.361992086949304
6476.0,1.807619,1.819547,0.011928,0.4707,0.863,10.3558,10.402351711512162
6486.0,1.7881,1.79786,0.009759,0.4707,0.7845,10.2774,10.318040002829996
6496.0,1.80545,1.820631,0.015181,0.4315,0.7845,10.2381,10.277174908991283
6506.0,1.796775,1.806534,0.009759,0.4315,0.7845,10.3166,10.355378701911388
6516.0,1.809787,1.810872,0.001084,0.3923,0.7845,10.3558,10.392878964945181
6526.0,1.810872,1.826053,0.015181,0.4315,0.7453,10.2774,10.313419176005599
6536.0,1.819547,1.826053,0.006506,0.3923,0.7453,10.3166,10.35092299942377
6546.0,1.881355,1.908464,0.027109,0.3923,0.7453,10.3166,10.35092299942377
6556.0,1.900873,1.950754,0.04988,0.4315,0.7061,10.3558,10.38880951312517
6566.0,1.923645,1.980031,0.056386,0.4707,0.7453,10.3558,10.39324897325182
6576.0,1.925813,1.985453,0.059639,0.4315,0.7453,10.3166,10.35248278916705
6586.0,1.881355,1.920392,0.039037,0.4707,0.7061,10.3558,10.390511505214747
6596.0,1.861837,1.885692,0.023856,0.5099,0.7061,10.3558,10.392361082064076
6606.0,1.808703,1.804366,-0.004337,0.5099,0.7845,10.3558,10.397982107120592
6616.0,1.787016,1.781594,-0.005422,0.5492,0.7453,10.395,10.436144773334643
6626.0,1.795691,1.807619,0.011928,0.5099,0.7453,10.395,10.43415042540599
6636.0,1.787016,1.787016,0.0,0.5492,0.7845,10.3166,10.36095055726066
6646.0,1.804366,1.809787,0.005422,0.5099,0.8238,10.2774,10.322964458429565
6656.0,1.791353,1.803281,0.011928,0.5099,0.8238,10.3166,10.361992086949304
6666.0,1.796775,1.801113,0.004337,0.5492,0.7453,10.3558,10.397099901895722
6676.0,1.808703,1.809787,0.001084,0.5492,0.7845,10.2774,10.321918990672229
6686.0,1.7881,1.784847,-0.003253,0.5492,0.7453,10.3558,10.397099901895722
6696.0,1.682918,1.693762,0.010844,0.5492,0.7061,10.3166,10.355309430915137
6706.0,1.741473,1.76316,0.021687,0.5099,0.7453,10.3166,10.356046816232533
6716.0,2.264132,2.41052,0.146388,0.5492,0.7061,10.3558,10.394363448042405
6726.0,2.713055,2.981975,0.26892,0.5099,0.7453,10.395,10.43415042540599
6736.0,2.269554,2.454978,0.185425,0.5099,0.7845,10.3558,10.397982107120592
6746.0,1.744726,1.743642,-0.001084,0.4707,0.7453,10.3558,10.39324897325182
6756.0,1.6287,1.598338,-0.030362,0.4707,0.7453,10.3166,10.354190752540731
6766.0,1.740389,1.717617,-0.022771,0.4707,0.7453,10.2774,10.315133607472083
6776.0,1.759907,1.751232,-0.008675,0.5099,0.7845,10.2774,10.31990256833852
6786.0,1.742558,1.727377,-0.015181,0.5099,0.7845,10.3166,10.358941732628868
6796.0,1.76316,1.745811,-0.01735,0.4707,0.7845,10.3558,10.396133530308276
6806.0,1.753401,1.739304,-0.014097,0.4707,0.7453,10.2774,10.315133607472083
6816.0,1.752317,1.750148,-0.002169,0.5099,0.7061,10.3166,10.353299511749864
6826.0,1.762076,1.757738,-0.004337,0.5099,0.8238,10.3558,10.401021011900706
6836.0,1.751232,1.741473,-0.009759,0.4707,0.7453,10.3166,10.354190752540731
6846.0,1.769666,1.766413,-0.003253,0.4707,0.7453,10.3166,10.354190752540731
6856.0,1.758823,1.751232,-0.00759,0.4707,0.7453,10.395,10.432308257523834
6866.0,1.765329,1.753401,-0.011928,0.4315,0.7845,10.3166,10.355378701911388
6876.0,1.777257,1.766413,-0.010844,0.4707,0.7453,10.2774,10.315133607472083
6886.0,1.766413,1.757738,-0.008675,0.4707,0.7453,10.3558,10.39324897325182
6896.0,1.828222,1.823884,-0.004337,0.5099,0.7453,10.3558,10.395098063029517
6906.0,1.861837,1.868343,0.006506,0.5099,0.7845,10.3166,10.358941732628868
6916.0,1.900873,1.927982,0.027109,0.5099,0.7845,10.3166,10.358941732628868
6926.0,1.948585,1.994128,0.045543,0.5492,0.7845,10.3166,10.36095055726066
6936.0,1.961597,2.003887,0.04229,0.5492,0.7453,10.2774,10.319013687848273
6946.0,2.008224,2.052683,0.044459,0.5099,0.7845,10.3558,10.397982107120592
6956.0,2.003887,2.051599,0.047712,0.4707,0.7845,10.3558,10.396133530308276
6966.0,1.997381,2.04943,0.052049,0.5099,0.7453,10.3558,10.395098063029517
6976.0,1.990875,2.044008,0.053133,0.5099,0.7453,10.3558,10.395098063029517
6986.0,1.946416,1.984369,0.037952,0.5492,0.7061,10.3166,10.355309430915137
6996.0,1.924729,1.955091,0.030362,0.5099,0.7453,10.3558,10.395098063029517
7006.0,1.869427,1.895451,0.026025,0.5099,0.7453,10.3166,10.356046816232533
7016.0,1.823884,1.833643,0.009759,0.4707,0.7061,10.3166,10.351442955453118
7026.0,1.791353,1.787016,-0.004337,0.4707,0.7845,10.3558,10.396133530308276
7036.0,1.729545,1.71328,-0.016265,0.5099,0.7453,10.3558,10.395098063029517
7046.0,1.716533,1.698099,-0.018434,0.5099,0.7061,10.3558,10.392361082064076
7056.0,1.706774,1.685087,-0.021687,0.5099,0.7453,10.3558,10.395098063029517
7066.0,1.71328,1.691593,-0.021687,0.4707,0.7845,10.395,10.435182017578802
7076.0,1.724123,1.706774,-0.01735,0.4707,0.7845,10.395,10.435182017578802
7086.0,1.708943,1.689424,-0.019518,0.4707,0.7453,10.3558,10.39324897325182
7096.0,1.733883,1.723039,-0.010844,0.5099,0.7845,10.3558,10.397982107120592
7106.0,1.723039,1.708943,-0.014097,0.5492,0.7845,10.3166,10.36095055726066
7116.0,1.727377,1.715449,-0.011928,0.4707,0.8238,10.3166,10.360137088378705
7126.0,1.739304,1.725208,-0.014097,0.4707,0.7845,10.3166,10.357086187726738
7136.0,1.729545,1.712196,-0.01735,0.4707,0.7845,10.3558,10.396133530308276
7146.0,1.746895,1.734967,-0.011928,0.4315,0.7453,10.3166,10.35248278916705
7156.0,1.733883,1.725208,-0.008675,0.4315,0.7453,10.3166,10.35248278916705
7166.0,1.742558,1.73063,-0.011928,0.4315,0.7845,10.3558,10.394432458773302
7176.0,1.752317,1.745811,-0.006506,0.4315,0.7453,10.3166,10.35248278916705
7186.0,1.743642,1.727377,-0.016265,0.4315,0.7845,10.3558,10.394432458773302
7196.0,1.756654,1.752317,-0.004337,0.4315,0.7845,10.3558,10.394432458773302
7206.0,1.745811,1.745811,0.0,0.4707,0.7453,10.3166,10.354190752540731
7216.0,1.752317,1.751232,-0.001084,0.5099,0.7453,10.3166,10.356046816232533
7226.0,1.765329,1.765329,0.0,0.5492,0.7845,10.3166,10.36095055726066
7236.0,1.745811,1.749064,0.003253,0.5492,0.7845,10.3166,10.36095055726066
7246.0,1.767498,1.767498,0.0,0.5099,0.7453,10.3166,10.356046816232533
7256.0,1.770751,1.754485,-0.016265,0.5099,0.7845,10.3166,10.358941732628868
7266.0,1.766413,1.762076,-0.004337,0.5099,0.7845,10.3558,10.397982107120592
7276.0,1.779426,1.781594,0.002169,0.5099,0.7845,10.3166,10.358941732628868
7286.0,1.756654,1.76316,0.006506,0.5099,0.7845,10.3166,10.358941732628868
7296.0,1.776173,1.78051,0.004337,0.5099,0.8238,10.3166,10.361992086949304
7306.0,1.771835,1.774004,0.002169,0.5099,0.7845,10.3166,10.358941732628868
7316.0,1.769666,1.776173,0.006506,0.4315,0.7453,10.3166,10.35248278916705
7326.0,1.785932,1.7881,0.002169,0.5492,0.7845,10.3166,10.36095055726066
7336.0,1.769666,1.769666,0.0,0.4707,0.7845,10.3558,10.396133530308276
7346.0,1.785932,1.793522,0.00759,0.4707,0.7453,10.3558,10.39324897325182
7356.0,1.779426,1.781594,0.002169,0.5099,0.7453,10.3166,10.356046816232533
7366.0,1.78051,1.785932,0.005422,0.4315,0.7453,10.3558,10.391547429521745
7376.0,1.796775,1.796775,0.0,0.5099,0.7453,10.2774,10.316996697682907
7386.0,1.777257,1.776173,-0.001084,0.4707,0.7845,10.2774,10.318040002829996
7396.0,1.796775,1.802197,0.005422,0.5099,0.7453,10.4343,10.473303518470187
7406.0,1.785932,1.794607,0.008675,0.5099,0.7845,10.3558,10.397982107120592
7416.0,1.790269,1.794607,0.004337,0.4707,0.7845,10.3166,10.357086187726738
7426.0,1.798944,1.811956,0.013012,0.4707,0.8238,10.3166,10.360137088378705
7436.0,1.784847,1.795691,0.010844,0.4707,0.8238,10.3166,10.360137088378705
7446.0,1.807619,1.814125,0.006506,0.5099,0.8238,10.3166,10.361992086949304
7456.0,1.794607,1.808703,0.014097,0.4315,0.7845,10.2381,10.277174908991283
7466.0,1.794607,1.80545,0.010844,0.4707,0.7845,10.3166,10.357086187726738
7476.0,1.809787,1.819547,0.009759,0.4315,0.7845,10.3166,10.355378701911388
7486.0,1.794607,1.795691,0.001084,0.4707,0.7453,10.3166,10.354190752540731
7496.0,1.809787,1.821715,0.011928,0.4707,0.7845,10.3166,10.357086187726738
7506.0,1.80545,1.811956,0.006506,0.5492,0.7453,10.2774,10.319013687848273
7516.0,1.806534,1.809787,0.003253,0.5099,0.7453,10.3166,10.356046816232533
7526.0,1.809787,1.819547,0.009759,0.4707,0.7453,10.3558,10.39324897325182
7536.0,1.815209,1.831475,0.016265,0.5099,0.7453,10.2774,10.316996697682907
7546.0,1.870511,1.908464,0.037952,0.5099,0.7061,10.3166,10.353299511749864
7556.0,1.895451,1.950754,0.055302,0.4707,0.7453,10.2774,10.315133607472083
7566.0,1.919307,1.978947,0.059639,0.5492,0.7453,10.2774,10.319013687848273
7576.0,1.921476,1.985453,0.063977,0.4707,0.7845,10.395,10.435182017578802
7586.0,1.878102,1.917139,0.039037,0.5099,0.7845,10.3558,10.397982107120592
7596.0,1.858583,1.885692,0.027109,0.5492,0.7453,10.3558,10.397099901895722
7606.0,1.809787,1.819547,0.009759,0.5492,0.8238,10.3558,10.403021711022236
7616.0,1.785932,1.785932,0.0,0.5099,0.8238,10.3166,10.361992086949304
7626.0,1.798944,1.80545,0.006506,0.4707,0.7845,10.3558,10.396133530308276
7636.0,1.7881,1.782679,-0.005422,0.5492,0.7845,10.3558,10.399983390852123
7646.0,1.800028,1.804366,0.004337,0.5099,0.7453,10.3166,10.356046816232533
7656.0,1.794607,1.792438,-0.002169,0.5099,0.7453,10.2774,10.316996697682907
7666.0,1.800028,1.795691,-0.004337,0.4707,0.7453,10.3166,10.354190752540731
7676.0,1.807619,1.809787,0.002169,0.5099,0.7845,10.3558,10.397982107120592
7686.0,1.781594,1.78051,-0.001084,0.4707,0.7845,10.3166,10.357086187726738
7696.0,1.685087,1.689424,0.004337,0.4707,0.7845,10.3166,10.357086187726738
7706.0,1.73063,1.758823,0.028193,0.5099,0.7845,10.3558,10.397982107120592
7716.0,2.261963,2.396423,0.13446,0.5492,0.7845,10.3558,10.399983390852123
7726.0,2.714139,2.978722,0.264582,0.5099,0.7845,10.3558,10.397982107120592
7736.0,2.279313,2.449557,0.170244,0.5492,0.7453,10.3558,10.397099901895722
7746.0,1.742558,1.726292,-0.016265,0.5099,0.7845,10.3166,10.358941732628868
7756.0,1.625447,1.588579,-0.036868,0.5099,0.7453,10.3166,10.356046816232533
7766.0,1.741473,1.705689,-0.035784,0.5099,0.7453,10.395,10.43415042540599
7776.0,1.765329,1.751232,-0.014097,0.4707,0.8238,10.3166,10.360137088378705
7786.0,1.746895,1.725208,-0.021687,0.5099,0.7845,10.3166,10.358941732628868
7796.0,1.766413,1.744726,-0.021687,0.4707,0.7845,10.3558,10.396133530308276
7806.0,1.753401,1.731714,-0.021687,0.5099,0.7845,10.3558,10.397982107120592
7816.0,1.756654,1.737136,-0.019518,0.5099,0.7845,10.3166,10.358941732628868
7826.0,1.766413,1.762076,-0.004337,0.4707,0.7845,10.3166,10.357086187726738
7836.0,1.750148,1.743642,-0.006506,0.4707,0.7845,10.2774,10.318040002829996
7846.0,1.775088,1.768582,-0.006506,0.4315,0.7845,10.3166,10.355378701911388
7856.0,1.762076,1.753401,-0.008675,0.4707,0.7845,10.2774,10.318040002829996
7866.0,1.759907,1.753401,-0.006506,0.4315,0.8238,10.2774,10.319389005653386
7876.0,1.776173,1.769666,-0.006506,0.4707,0.7845,10.395,10.435182017578802
7886.0,1.762076,1.753401,-0.008675,0.5099,0.7453,10.3166,10.356046816232533
7896.0,1.826053,1.8228,-0.003253,0.5099,0.7845,10.3558,10.397982107120592
7906.0,1.860752,1.867258,0.006506,0.5099,0.7845,10.3558,10.397982107120592
7916.0,1.899789,1.923645,0.023856,0.5492,0.7845,10.3166,10.36095055726066
7926.0,1.954007,1.98979,0.035784,0.5492,0.7453,10.3558,10.397099901895722
7936.0,1.971356,2.008224,0.036868,0.5099,0.7845,10.3558,10.397982107120592
7946.0,2.011477,2.059189,0.047712,0.5099,0.7453,10.3166,10.356046816232533
7956.0,2.009309,2.061358,0.052049,0.4707,0.7845,10.2774,10.318040002829996
7966.0,1.996296,2.046177,0.04988,0.5099,0.7845,10.3166,10.358941732628868
7976.0,2.006056,2.050514,0.044459,0.5884,0.7061,10.3558,10.39650832779929
7986.0,1.951838,1.991959,0.040121,0.5492,0.7453,10.3558,10.397099901895722
7996.0,1.927982,1.962681,0.034699,0.4707,0.7845,10.3558,10.396133530308276
8006.0,1.880271,1.892198,0.011928,0.5099,0.7453,10.3558,10.395098063029517
8016.0,1.828222,1.827137,-0.001084,0.4707,0.7845,10.3558,10.396133530308276
8026.0,1.796775,1.785932,-0.010844,0.5099,0.7453,10.3558,10.395098063029517
8036.0,1.737136,1.712196,-0.02494,0.5099,0.7453,10.3166,10.356046816232533
8046.0,1.715449,1.698099,-0.01735,0.4707,0.7061,10.3166,10.351442955453118
8056.0,1.711111,1.691593,-0.019518,0.5099,0.7845,10.3166,10.358941732628868
8066.0,1.715449,1.692677,-0.022771,0.4707,0.8238,10.3558,10.399172975289911
8076.0,1.727377,1.712196,-0.015181,0.5099,0.7845,10.3166,10.358941732628868
8086.0,1.715449,1.693762,-0.021687,0.5099,0.7845,10.3558,10.397982107120592
8096.0,1.732798,1.717617,-0.015181,0.5099,0.7453,10.2774,10.316996697682907
8106.0,1.725208,1.71328,-0.011928,0.5099,0.7453,10.3558,10.395098063029517
8116.0,1.725208,1.710027,-0.015181,0.5099,0.7453,10.3166,10.356046816232533
8126.0,1.742558,1.73063,-0.011928,0.5099,0.7453,10.3166,10.356046816232533
8136.0,1.733883,1.708943,-0.02494,0.5099,0.7453,10.3558,10.395098063029517
8146.0,1.749064,1.732798,-0.016265,0.4707,0.7061,10.3558,10.390511505214747
8156.0,1.73822,1.73063,-0.00759,0.5099,0.7453,10.3558,10.395098063029517
8166.0,1.742558,1.731714,-0.010844,0.4707,0.7453,10.3558,10.39324897325182
8176.0,1.753401,1.750148,-0.003253,0.4707,0.7845,10.3166,10.357086187726738
8186.0,1.737136,1.732798,-0.004337,0.5099,0.7453,10.3558,10.395098063029517
8196.0,1.753401,1.753401,0.0,0.5492,0.7845,10.2774,10.321918990672229
8206.0,1.753401,1.741473,-0.011928,0.5099,0.7453,10.3166,10.356046816232533
8216.0,1.751232,1.749064,-0.002169,0.5099,0.7453,10.3166,10.356046816232533
8226.0,1.765329,1.760992,-0.004337,0.5099,0.7845,10.2774,10.31990256833852
8236.0,1.752317,1.739304,-0.013012,0.5099,0.8238,10.2774,10.322964458429565
8246.0,1.776173,1.767498,-0.008675,0.5099,0.7453,10.3166,10.356046816232533
8256.0,1.766413,1.756654,-0.009759,0.5099,0.7061,10.3558,10.392361082064076
8266.0,1.765329,1.75557,-0.009759,0.4707,0.7845,10.3558,10.396133530308276
8276.0,1.782679,1.776173,-0.006506,0.5099,0.7845,10.3558,10.397982107120592
8286.0,1.764245,1.760992,-0.003253,0.4707,0.7453,10.395,10.432308257523834
8296.0,1.781594,1.778341,-0.003253,0.4707,0.7845,10.3558,10.396133530308276
8306.0,1.78051,1.770751,-0.009759,0.4707,0.7453,10.3558,10.39324897325182
8316.0,1.779426,1.770751,-0.008675,0.4315,0.7061,10.2774,10.310660513274598
8326.0,1.793522,1.790269,-0.003253,0.4707,0.7453,10.3166,10.354190752540731
8336.0,1.781594,1.772919,-0.008675,0.5099,0.7845,10.3166,10.358941732628868
8346.0,1.790269,1.794607,0.004337,0.4707,0.7453,10.2774,10.315133607472083
8356.0,1.784847,1.784847,0.0,0.5099,0.7453,10.3166,10.356046816232533
8366.0,1.781594,1.78051,-0.001084,0.5099,0.7453,10.3166,10.356046816232533
8376.0,1.800028,1.798944,-0.001084,0.4707,0.7453,10.3166,10.354190752540731
8386.0,1.779426,1.781594,0.002169,0.5099,0.7453,10.3558,10.395098063029517
8396.0,1.794607,1.807619,0.013012,0.5099,0.7453,10.2774,10.316996697682907
8406.0,1.791353,1.790269,-0.001084,0.5099,0.7453,10.2774,10.316996697682907
8416.0,1.790269,1.7881,-0.002169,0.5099,0.7453,10.3558,10.395098063029517
8426.0,1.80545,1.809787,0.004337,0.5099,0.7061,10.3166,10.353299511749864
8436.0,1.794607,1.785932,-0.008675,0.4707,0.7845,10.3558,10.396133530308276
8446.0,1.802197,1.809787,0.00759,0.4707,0.7845,10.395,10.435182017578802
8456.0,1.798944,1.80545,0.006506,0.5099,0.7453,10.3558,10.395098063029517
8466.0,1.795691,1.798944,0.003253,0.5099,0.7061,10.3558,10.392361082064076
8476.0,1.807619,1.813041,0.005422,0.5099,0.7845,10.3558,10.397982107120592
8486.0,1.791353,1.79786,0.006506,0.5099,0.7061,10.3558,10.392361082064076
8496.0,1.809787,1.819547,0.009759,0.5492,0.7453,10.3558,10.397099901895722
8506.0,1.785932,1.809787,0.023856,0.5492,0.7453,10.2774,10.319013687848273
8516.0,1.809787,1.804366,-0.005422,0.4707,0.7453,10.2774,10.315133607472083
8526.0,1.809787,1.823884,0.014097,0.4707,0.7453,10.3558,10.39324897325182
8536.0,1.809787,1.823884,0.014097,0.4707,0.7453,10.3558,10.39324897325182
8546.0,1.879186,1.905211,0.026025,0.4707,0.7845,10.2774,10.318040002829996
8556.0,1.892198,1.951838,0.059639,0.4707,0.7453,10.3166,10.354190752540731
8566.0,1.920392,1.972441,0.052049,0.4707,0.8238,10.3558,10.399172975289911
8576.0,1.921476,1.9822,0.060724,0.5099,0.8238,10.395,10.440051218744092
8586.0,1.881355,1.921476,0.040121,0.5099,0.7453,10.3166,10.356046816232533
8596.0,1.849909,1.881355,0.031446,0.4707,0.7845,10.3166,10.357086187726738
8606.0,1.802197,1.811956,0.009759,0.4707,0.7845,10.3558,10.396133530308276
8616.0,1.78051,1.779426,-0.001084,0.5099,0.7453,10.2774,10.316996697682907
8626.0,1.796775,1.804366,0.00759,0.4707,0.7453,10.3166,10.354190752540731
8636.0,1.781594,1.781594,0.0,0.5099,0.7845,10.3558,10.397982107120592
8646.0,1.796775,1.809787,0.013012,0.5099,0.7453,10.3558,10.395098063029517
8656.0,1.794607,1.798944,0.004337,0.5099,0.7061,10.3166,10.353299511749864
8666.0,1.787016,1.800028,0.013012,0.5099,0.7453,10.395,10.43415042540599
8676.0,1.807619,1.813041,0.005422,0.5099,0.7453,10.3558,10.395098063029517
8686.0,1.783763,1.7881,0.004337,0.5492,0.7453,10.3166,10.358056202299734
8696.0,1.680749,1.69593,0.015181,0.5099,0.7453,10.3166,10.356046816232533
8706.0,1.732798,1.766413,0.033615,0.5099,0.7453,10.2774,10.316996697682907
8716.0,2.25871,2.405098,0.146388,0.5099,0.7845,10.3558,10.397982107120592
8726.0,2.713055,2.98089,0.267836,0.5099,0.7453,10.3166,10.356046816232533
8736.0,2.27606,2.45281,0.17675,0.5099,0.7453,10.3558,10.395098063029517
8746.0,1.745811,1.740389,-0.005422,0.5099,0.7453,10.395,10.43415042540599
8756.0,1.626532,1.592917,-0.033615,0.5099,0.7845,10.3558,10.397982107120592
8766.0,1.737136,1.703521,-0.033615,0.4707,0.8238,10.3166,10.360137088378705
8776.0,1.769666,1.752317,-0.01735,0.5099,0.7453,10.395,10.43415042540599
8786.0,1.745811,1.726292,-0.019518,0.5099,0.7845,10.3558,10.397982107120592
8796.0,1.759907,1.746895,-0.013012,0.5099,0.7453,10.3558,10.395098063029517
8806.0,1.753401,1.741473,-0.011928,0.5099,0.7845,10.3166,10.358941732628868
8816.0,1.753401,1.734967,-0.018434,0.4315,0.7845,10.2774,10.316326054366447
8826.0,1.768582,1.760992,-0.00759,0.4707,0.7845,10.3166,10.357086187726738
8836.0,1.753401,1.743642,-0.009759,0.5099,0.7845,10.395,10.437023678233176
8846.0,1.771835,1.753401,-0.018434,0.5099,0.7061,10.3558,10.392361082064076
8856.0,1.759907,1.753401,-0.006506,0.5099,0.7453,10.395,10.43415042540599
8866.0,1.765329,1.742558,-0.022771,0.5099,0.7453,10.3166,10.356046816232533
8876.0,1.781594,1.768582,-0.013012,0.5099,0.7845,10.3166,10.358941732628868
8886.0,1.767498,1.753401,-0.014097,0.5099,0.7845,10.3166,10.358941732628868
8896.0,1.831475,1.821715,-0.009759,0.4707,0.7845,10.3166,10.357086187726738
8906.0,1.866174,1.869427,0.003253,0.4707,0.7845,10.3166,10.357086187726738
8916.0,1.903042,1.913886,0.010844,0.5099,0.7845,10.3558,10.397982107120592
8926.0,1.960513,1.986537,0.026025,0.5099,0.7453,10.3558,10.395098063029517
8936.0,1.980031,2.008224,0.028193,0.5099,0.7453,10.3558,10.395098063029517
8946.0,2.01473,2.05702,0.04229,0.4707,0.7845,10.3558,10.396133530308276
8956.0,2.016899,2.05702,0.040121,0.4707,0.7453,10.3166,10.354190752540731
8966.0,2.001718,2.048345,0.046627,0.5099,0.7845,10.3558,10.397982107120592
8976.0,2.008224,2.041839,0.033615,0.4707,0.7453,10.3558,10.39324897325182
8986.0,1.959428,1.981115,0.021687,0.5099,0.7061,10.3558,10.392361082064076
8996.0,1.933404,1.951838,0.018434,0.4707,0.7845,10.3166,10.357086187726738
9006.0,1.877017,1.887861,0.010844,0.5099,0.7453,10.3558,10.395098063029517
9016.0,1.83039,1.8228,-0.00759,0.4707,0.7453,10.3558,10.39324897325182
9026.0,1.798944,1.784847,-0.014097,0.4707,0.7453,10.3558,10.39324897325182
9036.0,1.734967,1.706774,-0.028193,0.4707,0.7845,10.3166,10.357086187726738
9046.0,1.717617,1.687255,-0.030362,0.5099,0.7453,10.3558,10.395098063029517
9056.0,1.712196,1.685087,-0.027109,0.5099,0.7845,10.3558,10.397982107120592
9066.0,1.717617,1.685087,-0.032531,0.4707,0.7845,10.3558,10.396133530308276
9076.0,1.73063,1.708943,-0.021687,0.5099,0.7845,10.3558,10.397982107120592
9086.0,1.715449,1.697015,-0.018434,0.4707,0.7061,10.3558,10.390511505214747
9096.0,1.727377,1.72087,-0.006506,0.4707,0.7453,10.3558,10.39324897325182
9106.0,1.727377,1.716533,-0.010844,0.4707,0.7061,10.395,10.429581041441693
9116.0,1.723039,1.71328,-0.009759,0.5099,0.7061,10.3558,10.392361082064076
9126.0,1.739304,1.737136,-0.002169,0.5099,0.7061,10.3166,10.353299511749864
9136.0,1.725208,1.716533,-0.008675,0.5099,0.7061,10.395,10.431423690944587
9146.0,1.742558,1.73822,-0.004337,0.5099,0.7453,10.3558,10.395098063029517
9156.0,1.737136,1.733883,-0.003253,0.5099,0.7453,10.2774,10.316996697682907
9166.0,1.734967,1.733883,-0.001084,0.4707,0.8238,10.3558,10.399172975289911
9176.0,1.747979,1.753401,0.005422,0.4707,0.7845,10.3166,10.357086187726738
9186.0,1.725208,1.737136,0.011928,0.5099,0.8238,10.3558,10.401021011900706
9196.0,1.753401,1.756654,0.003253,0.4707,0.8238,10.3166,10.360137088378705
9206.0,1.749064,1.753401,0.004337,0.5099,0.863,10.3166,10.365182225605103
9216.0,1.745811,1.746895,0.001084,0.4707,0.8238,10.3558,10.399172975289911
9226.0,1.756654,1.765329,0.008675,0.4707,0.7453,10.3558,10.39324897325182
9236.0,1.746895,1.744726,-0.002169,0.5492,0.7061,10.2774,10.316256521141765
9246.0,1.759907,1.760992,0.001084,0.5099,0.7453,10.3558,10.395098063029517
9256.0,1.754485,1.757738,0.003253,0.4707,0.7061,10.4343,10.468751223999929
9266.0,1.753401,1.75557,0.002169,0.4707,0.7061,10.3166,10.351442955453118
9276.0,1.776173,1.781594,0.005422,0.5099,0.7061,10.3166,10.353299511749864
9286.0,1.756654,1.760992,0.004337,0.5492,0.7453,10.395,10.436144773334643
9296.0,1.779426,1.78051,0.001084,0.4707,0.7061,10.3166,10.351442955453118
9306.0,1.771835,1.776173,0.004337,0.5099,0.7453,10.3166,10.356046816232533
9316.0,1.768582,1.768582,0.0,0.4707,0.7453,10.3558,10.39324897325182
9326.0,1.785932,1.790269,0.004337,0.4707,0.7845,10.395,10.435182017578802
9336.0,1.776173,1.767498,-0.008675,0.5099,0.7845,10.3166,10.358941732628868
9346.0,1.787016,1.790269,0.003253,0.5099,0.8238,10.3558,10.401021011900706
9356.0,1.778341,1.784847,0.006506,0.5099,0.863,10.3166,10.365182225605103
9366.0,1.78051,1.782679,0.002169,0.5099,0.8238,10.3558,10.401021011900706
9376.0,1.794607,1.802197,0.00759,0.4707,0.7453,10.3166,10.354190752540731
9386.0,1.776173,1.778341,0.002169,0.4315,0.7845,10.3558,10.394432458773302
9396.0,1.789185,1.795691,0.006506,0.5099,0.7453,10.3558,10.395098063029517
9406.0,1.787016,1.79786,0.010844,0.4315,0.7845,10.3558,10.394432458773302
9416.0,1.781594,1.792438,0.010844,0.4707,0.7061,10.3166,10.351442955453118
9426.0,1.800028,1.813041,0.013012,0.4315,0.7845,10.3166,10.355378701911388
9436.0,1.781594,1.790269,0.008675,0.4315,0.7061,10.3166,10.349734538624649
9446.0,1.79786,1.814125,0.016265,0.4315,0.7845,10.2774,10.316326054366447
9456.0,1.792438,1.804366,0.011928,0.3923,0.8238,10.4735,10.51317021549637
9466.0,1.793522,1.79786,0.004337,0.4707,0.7453,10.3558,10.39324897325182
9476.0,1.806534,1.818462,0.011928,0.4707,0.7061,10.2381,10.273209202094543
9486.0,1.796775,1.794607,-0.002169,0.5099,0.7061,10.3558,10.392361082064076
9496.0,1.809787,1.811956,0.002169,0.5099,0.7453,10.395,10.43415042540599
9506.0,1.804366,1.809787,0.005422,0.5099,0.7453,10.2774,10.316996697682907
9516.0,1.795691,1.800028,0.004337,0.5099,0.7453,10.2774,10.316996697682907
9526.0,1.814125,1.824968,0.010844,0.5099,0.8238,10.2774,10.322964458429565
9536.0,1.815209,1.826053,0.010844,0.5492,0.7845,10.395,10.439017477234147
9546.0,1.87268,1.899789,0.027109,0.5099,0.7845,10.3166,10.358941732628868
9556.0,1.900873,1.947501,0.046627,0.5099,0.7845,10.2774,10.31990256833852
9566.0,1.910632,1.96485,0.054218,0.4707,0.7845,10.3558,10.396133530308276
9576.0,1.925813,1.9822,0.056386,0.5099,0.7061,10.3166,10.353299511749864
9586.0,1.881355,1.917139,0.035784,0.4707,0.7453,10.3166,10.354190752540731
9596.0,1.853162,1.881355,0.028193,0.4315,0.7453,10.3558,10.391547429521745
9606.0,1.808703,1.809787,0.001084,0.4707,0.7453,10.4343,10.471468238504093
9616.0,1.782679,1.781594,-0.001084,0.4707,0.7061,10.3166,10.351442955453118
9626.0,1.80545,1.801113,-0.004337,0.4315,0.7845,10.2774,10.316326054366447
9636.0,1.7881,1.781594,-0.006506,0.4707,0.7845,10.3558,10.396133530308276
9646.0,1.800028,1.80545,0.005422,0.4707,0.7845,10.3558,10.396133530308276
9656.0,1.800028,1.800028,0.0,0.5099,0.7453,10.3166,10.356046816232533
9666.0,1.795691,1.793522,-0.002169,0.5099,0.7453,10.3558,10.395098063029517
9676.0,1.809787,1.815209,0.005422,0.4707,0.8238,10.3558,10.399172975289911
9686.0,1.784847,1.7881,0.003253,0.5099,0.7845,10.2774,10.31990256833852
9696.0,1.684002,1.690509,0.006506,0.5099,0.7845,10.3166,10.358941732628868
9706.0,1.737136,1.76316,0.026025,0.4707,0.7845,10.3558,10.396133530308276
9716.0,2.25871,2.404014,0.145303,0.5099,0.7845,10.3558,10.397982107120592
9726.0,2.714139,2.986312,0.272173,0.4707,0.7453,10.3166,10.354190752540731
9736.0,2.280397,2.456063,0.175665,0.4707,0.7845,10.2774,10.318040002829996
9746.0,1.742558,1.73822,-0.004337,0.5099,0.7845,10.3558,10.397982107120592
9756.0,1.630869,1.599423,-0.031446,0.5099,0.7845,10.3558,10.397982107120592
9766.0,1.73822,1.701352,-0.036868,0.5099,0.7061,10.3166,10.353299511749864
9776.0,1.770751,1.754485,-0.016265,0.5099,0.7061,10.3558,10.392361082064076
9786.0,1.743642,1.725208,-0.018434,0.4707,0.7061,10.3558,10.390511505214747
9796.0,1.768582,1.740389,-0.028193,0.5099,0.7845,10.3558,10.397982107120592
9806.0,1.757738,1.741473,-0.016265,0.5099,0.7061,10.3166,10.353299511749864
9816.0,1.753401,1.734967,-0.018434,0.5099,0.7845,10.2774,10.31990256833852
9826.0,1.775088,1.754485,-0.020603,0.5099,0.8238,10.3166,10.361992086949304
9836.0,1.753401,1.737136,-0.016265,0.5492,0.7453,10.3166,10.358056202299734
9846.0,1.776173,1.754485,-0.021687,0.5099,0.7453,10.2774,10.316996697682907
9856.0,1.768582,1.747979,-0.020603,0.5099,0.7845,10.3166,10.358941732628868
9866.0,1.765329,1.739304,-0.026025,0.4707,0.8238,10.3166,10.360137088378705
9876.0,1.781594,1.76316,-0.018434,0.5099,0.7453,10.3558,10.395098063029517
9886.0,1.772919,1.753401,-0.019518,0.5099,0.7845,10.2774,10.31990256833852
9896.0,1.829306,1.816294,-0.013012,0.5099,0.7845,10.3558,10.397982107120592
9906.0,1.867258,1.866174,-0.001084,0.4707,0.7453,10.3166,10.354190752540731
9916.0,1.904126,1.918223,0.014097,0.4707,0.7453,10.3166,10.354190752540731
9926.0,1.958344,1.98979,0.031446,0.4707,0.7845,10.2774,10.318040002829996
9936.0,1.977862,2.001718,0.023856,0.3923,0.7453,10.3166,10.35092299942377
9946.0,2.010393,2.045092,0.034699,0.4707,0.7453,10.395,10.432308257523834
9956.0,2.01473,2.054852,0.040121,0.4707,0.7453,10.2774,10.315133607472083
9966.0,1.996296,2.038586,0.04229,0.4707,0.7845,10.2774,10.318040002829996
9976.0,2.001718,2.042924,0.041205,0.5099,0.7061,10.3558,10.392361082064076
9986.0,1.952922,1.9822,0.029278,0.5492,0.7845,10.395,10.439017477234147
9996.0,1.926898,1.954007,0.027109,0.5099,0.7453,10.2774,10.316996697682907
10006.0,1.877017,1.89003,0.013012,0.5099,0.7453,10.3166,10.356046816232533
10016.0,1.823884,1.8228,-0.001084,0.5099,0.7453,10.3558,10.395098063029517
10026.0,1.792438,1.782679,-0.009759,0.4707,0.7453,10.3166,10.354190752540731
10036.0,1.731714,1.706774,-0.02494,0.5099,0.7845,10.3558,10.397982107120592
10046.0,1.708943,1.689424,-0.019518,0.5099,0.7845,10.3166,10.358941732628868
10056.0,1.711111,1.68834,-0.022771,0.4707,0.7845,10.2774,10.318040002829996
10066.0,1.710027,1.684002,-0.026025,0.5099,0.7845,10.3166,10.358941732628868
10076.0,1.731714,1.706774,-0.02494,0.5492,0.7453,10.3558,10.397099901895722
10086.0,1.716533,1.689424,-0.027109,0.5099,0.7845,10.3558,10.397982107120592
10096.0,1.737136,1.710027,-0.027109,0.4707,0.7453,10.2774,10.315133607472083
10106.0,1.731714,1.712196,-0.019518,0.5099,0.7453,10.2774,10.316996697682907
10116.0,1.726292,1.707858,-0.018434,0.5099,0.7453,10.3166,10.356046816232533
10126.0,1.746895,1.729545,-0.01735,0.5099,0.7453,10.3166,10.356046816232533
10136.0,1.725208,1.712196,-0.013012,0.4707,0.7845,10.3558,10.396133530308276
10146.0,1.745811,1.732798,-0.013012,0.4707,0.7453,10.3558,10.39324897325182
10156.0,1.742558,1.731714,-0.010844,0.5099,0.7453,10.3166,10.356046816232533
10166.0,1.739304,1.731714,-0.00759,0.4707,0.7845,10.3166,10.357086187726738
10176.0,1.75557,1.746895,-0.008675,0.5099,0.7453,10.3558,10.395098063029517
10186.0,1.745811,1.725208,-0.020603,0.5492,0.7845,10.3558,10.399983390852123
10196.0,1.754485,1.747979,-0.006506,0.5099,0.7453,10.2774,10.316996697682907
10206.0,1.756654,1.745811,-0.010844,0.4707,0.7061,10.2381,10.273209202094543
10216.0,1.758823,1.732798,-0.026025,0.5492,0.7453,10.3558,10.397099901895722
10226.0,1.776173,1.762076,-0.014097,0.5099,0.7061,10.3558,10.392361082064076
10236.0,1.757738,1.739304,-0.018434,0.5099,0.7453,10.3558,10.395098063029517
10246.0,1.777257,1.758823,-0.018434,0.5099,0.7453,10.395,10.43415042540599
10256.0,1.769666,1.756654,-0.013012,0.4707,0.7453,10.3558,10.39324897325182
10266.0,1.764245,1.753401,-0.010844,0.5099,0.7845,10.2774,10.31990256833852
10276.0,1.781594,1.776173,-0.005422,0.5099,0.7845,10.3166,10.358941732628868
10286.0,1.770751,1.751232,-0.019518,0.4707,0.7845,10.395,10.435182017578802
10296.0,1.781594,1.768582,-0.013012,0.4707,0.8238,10.3166,10.360137088378705
10306.0,1.776173,1.774004,-0.002169,0.5099,0.8238,10.3558,10.401021011900706
10316.0,1.774004,1.765329,-0.008675,0.5099,0.7061,10.3558,10.392361082064076
10326.0,1.791353,1.793522,0.002169,0.5099,0.7453,10.3558,10.395098063029517
10336.0,1.771835,1.772919,0.001084,0.4707,0.7453,10.3558,10.39324897325182
10346.0,1.7881,1.783763,-0.004337,0.4707,0.7845,10.3166,10.357086187726738
10356.0,1.784847,1.782679,-0.002169,0.4707,0.7453,10.3166,10.354190752540731
10366.0,1.782679,1.778341,-0.004337,0.4707,0.7845,10.3166,10.357086187726738
10376.0,1.791353,1.804366,0.013012,0.4707,0.7453,10.3558,10.39324897325182
10386.0,1.78051,1.782679,0.002169,0.4707,0.7453,10.3558,10.39324897325182
10396.0,1.791353,1.804366,0.013012,0.5099,0.7845,10.3166,10.358941732628868
10406.0,1.793522,1.800028,0.006506,0.4707,0.7845,10.3166,10.357086187726738
10416.0,1.781594,1.790269,0.008675,0.5099,0.7453,10.3558,10.395098063029517
10426.0,1.802197,1.809787,0.00759,0.4315,0.7845,10.3558,10.394432458773302
10436.0,1.7881,1.7881,0.0,0.4315,0.7845,10.3166,10.355378701911388
10446.0,1.796775,1.807619,0.010844,0.5099,0.7061,10.3558,10.392361082064076
10456.0,1.79786,1.80545,0.00759,0.4707,0.7061,10.3558,10.390511505214747
10466.0,1.789185,1.801113,0.011928,0.5099,0.8238,10.395,10.440051218744092
10476.0,1.807619,1.816294,0.008675,0.5492,0.7453,10.3166,10.358056202299734
10486.0,1.794607,1.79786,0.003253,0.5099,0.7845,10.3166,10.358941732628868
10496.0,1.808703,1.818462,0.009759,0.5099,0.7845,10.395,10.437023678233176
10506.0,1.798944,1.819547,0.020603,0.5099,0.7453,10.3166,10.356046816232533
10516.0,1.794607,1.804366,0.009759,0.5492,0.7453,10.3166,10.358056202299734
10526.0,1.816294,1.826053,0.009759,0.4707,0.7845,10.3166,10.357086187726738
10536.0,1.818462,1.828222,0.009759,0.5099,0.7453,10.3166,10.356046816232533
10546.0,1.87268,1.903042,0.030362,0.5099,0.7453,10.2774,10.316996697682907
10556.0,1.898705,1.951838,0.053133,0.5099,0.7061,10.3558,10.392361082064076
10566.0,1.913886,1.96485,0.050965,0.5099,0.7845,10.395,10.437023678233176
10576.0,1.927982,1.985453,0.057471,0.5099,0.7845,10.2774,10.31990256833852
10586.0,1.874849,1.92256,0.047712,0.5099,0.8238,10.3558,10.401021011900706
10596.0,1.84774,1.879186,0.031446,0.5492,0.7453,10.3558,10.397099901895722
10606.0,1.808703,1.813041,0.004337,0.5099,0.7845,10.3166,10.358941732628868
10616.0,1.78051,1.781594,0.001084,0.5492,0.7453,10.3166,10.358056202299734
10626.0,1.804366,1.808703,0.004337,0.5099,0.7845,10.2774,10.31990256833852
10636.0,1.782679,1.781594,-0.001084,0.5099,0.7845,10.395,10.437023678233176
10646.0,1.794607,1.806534,0.011928,0.5099,0.7453,10.3558,10.395098063029517
10656.0,1.793522,1.802197,0.008675,0.5099,0.8238,10.395,10.440051218744092
10666.0,1.793522,1.792438,-0.001084,0.4315,0.8238,10.3166,10.358430105474477
10676.0,1.804366,1.810872,0.006506,0.4707,0.7845,10.3558,10.396133530308276
10686.0,1.785932,1.781594,-0.004337,0.5099,0.9022,10.3166,10.368519586228304
10696.0,1.682918,1.684002,0.001084,0.5099,0.7845,10.3558,10.397982107120592
10706.0,1.73822,1.76316,0.02494,0.5099,0.7845,10.3558,10.397982107120592
10716.0,2.255457,2.404014,0.148557,0.4707,0.7061,10.395,10.429581041441693
10726.0,2.71197,2.988481,0.27651,0.5099,0.7845,10.3166,10.358941732628868
10736.0,2.274976,2.454978,0.180003,0.5099,0.7453,10.3558,10.395098063029517
10746.0,1.740389,1.733883,-0.006506,0.5099,0.9022,10.3558,10.407524032641001
10756.0,1.631953,1.59617,-0.035784,0.5099,0.7845,10.3558,10.397982107120592
10766.0,1.740389,1.701352,-0.039037,0.4707,0.7845,10.3558,10.396133530308276
10776.0,1.766413,1.753401,-0.013012,0.5099,0.7845,10.3558,10.397982107120592
10786.0,1.745811,1.729545,-0.016265,0.4315,0.8238,10.3166,10.358430105474477
10796.0,1.762076,1.747979,-0.014097,0.5099,0.7453,10.3558,10.395098063029517
10806.0,1.754485,1.742558,-0.011928,0.5492,0.7845,10.2774,10.321918990672229
10816.0,1.753401,1.733883,-0.019518,0.5099,0.7453,10.395,10.43415042540599
10826.0,1.768582,1.757738,-0.010844,0.5099,0.7845,10.3166,10.358941732628868
10836.0,1.753401,1.740389,-0.013012,0.4315,0.7845,10.3558,10.394432458773302
10846.0,1.770751,1.76316,-0.00759,0.5099,0.7845,10.3558,10.397982107120592
10856.0,1.767498,1.76316,-0.004337,0.5099,0.8238,10.395,10.440051218744092
10866.0,1.760992,1.752317,-0.008675,0.5099,0.7453,10.3166,10.356046816232533
10876.0,1.781594,1.776173,-0.005422,0.4707,0.7453,10.3166,10.354190752540731
10886.0,1.767498,1.754485,-0.013012,0.4707,0.7453,10.3166,10.354190752540731
10896.0,1.819547,1.816294,-0.003253,0.5099,0.7061,10.3166,10.353299511749864
10906.0,1.867258,1.877017,0.009759,0.4315,0.7453,10.3558,10.391547429521745
10916.0,1.900873,1.921476,0.020603,0.4707,0.7061,10.3166,10.351442955453118
10926.0,1.951838,1.994128,0.04229,0.4707,0.7453,10.3558,10.39324897325182
10936.0,1.970272,2.012562,0.04229,0.4707,0.8238,10.3558,10.399172975289911
10946.0,2.008224,2.045092,0.036868,0.5099,0.8238,10.3166,10.361992086949304
10956.0,2.008224,2.060273,0.052049,0.4707,0.7845,10.3558,10.396133530308276
10966.0,1.994128,2.038586,0.044459,0.4707,0.7845,10.3558,10.396133530308276
10976.0,2.001718,2.045092,0.043374,0.4707,0.7845,10.2774,10.318040002829996
10986.0,1.943163,1.986537,0.043374,0.5099,0.7845,10.2774,10.31990256833852
10996.0,1.927982,1.954007,0.026025,0.5099,0.7845,10.395,10.437023678233176
11006.0,1.879186,1.894367,0.015181,0.4707,0.7845,10.3558,10.396133530308276
11016.0,1.819547,1.824968,0.005422,0.5492,0.7453,10.395,10.436144773334643
11026.0,1.793522,1.791353,-0.002169,0.5099,0.7453,10.395,10.43415042540599
11036.0,1.737136,1.715449,-0.021687,0.5099,0.7845,10.3558,10.397982107120592
11046.0,1.708943,1.68834,-0.020603,0.5492,0.7845,10.395,10.439017477234147
11056.0,1.712196,1.687255,-0.02494,0.5884,0.7453,10.3558,10.399244217249636
11066.0,1.699183,1.687255,-0.011928,0.5492,0.7453,10.3558,10.397099901895722
11076.0,1.725208,1.71328,-0.011928,0.5099,0.7061,10.3166,10.353299511749864
11086.0,1.711111,1.692677,-0.018434,0.5099,0.7453,10.3166,10.356046816232533
11096.0,1.727377,1.714364,-0.013012,0.5099,0.7453,10.3166,10.356046816232533
11106.0,1.728461,1.707858,-0.020603,0.4707,0.7845,10.3166,10.357086187726738
11116.0,1.724123,1.706774,-0.01735,0.4707,0.7453,10.3166,10.354190752540731
11126.0,1.744726,1.732798,-0.011928,0.5099,0.7453,10.3558,10.395098063029517
11136.0,1.727377,1.71328,-0.014097,0.5099,0.7453,10.3558,10.395098063029517
11146.0,1.740389,1.731714,-0.008675,0.4707,0.7453,10.395,10.432308257523834
11156.0,1.739304,1.734967,-0.004337,0.4707,0.8238,10.3558,10.399172975289911
11166.0,1.737136,1.726292,-0.010844,0.5099,0.7453,10.3558,10.395098063029517
11176.0,1.752317,1.744726,-0.00759,0.4707,0.7845,10.2774,10.318040002829996
11186.0,1.73822,1.728461,-0.009759,0.4707,0.7845,10.3166,10.357086187726738
11196.0,1.750148,1.752317,0.002169,0.4707,0.7845,10.3166,10.357086187726738
11206.0,1.751232,1.753401,0.002169,0.4707,0.7845,10.3166,10.357086187726738
11216.0,1.751232,1.741473,-0.009759,0.5099,0.7453,10.3166,10.356046816232533
11226.0,1.768582,1.767498,-0.001084,0.4707,0.8238,10.3166,10.360137088378705
11236.0,1.750148,1.752317,0.002169,0.4315,0.7845,10.2774,10.316326054366447
11246.0,1.769666,1.765329,-0.004337,0.4707,0.7453,10.3166,10.354190752540731
11256.0,1.762076,1.76316,0.001084,0.4707,0.8238,10.3558,10.399172975289911
11266.0,1.758823,1.753401,-0.005422,0.5099,0.7845,10.3558,10.397982107120592
11276.0,1.777257,1.779426,0.002169,0.4707,0.7845,10.3558,10.396133530308276
11286.0,1.75557,1.757738,0.002169,0.5099,0.7453,10.3166,10.356046816232533
11296.0,1.779426,1.779426,0.0,0.5099,0.7845,10.3558,10.397982107120592
11306.0,1.779426,1.774004,-0.005422,0.4707,0.7845,10.3166,10.357086187726738
11316.0,1.766413,1.766413,0.0,0.5099,0.7845,10.3558,10.397982107120592
11326.0,1.782679,1.794607,0.011928,0.4707,0.7453,10.3166,10.354190752540731
11336.0,1.777257,1.776173,-0.001084,0.4707,0.7845,10.3166,10.357086187726738
11346.0,1.783763,1.794607,0.010844,0.5099,0.7453,10.3166,10.356046816232533
11356.0,1.781594,1.795691,0.014097,0.4707,0.7453,10.3558,10.39324897325182
11366.0,1.774004,1.781594,0.00759,0.4707,0.7453,10.3558,10.39324897325182
11376.0,1.795691,1.800028,0.004337,0.4707,0.7845,10.3166,10.357086187726738
11386.0,1.78051,1.782679,0.002169,0.4707,0.7845,10.3166,10.357086187726738
11396.0,1.794607,1.794607,0.0,0.4315,0.7453,10.3166,10.35248278916705
11406.0,1.793522,1.796775,0.003253,0.4707,0.7845,10.3558,10.396133530308276
11416.0,1.781594,1.7881,0.006506,0.4315,0.8238,10.2774,10.319389005653386
11426.0,1.804366,1.810872,0.006506,0.4707,0.7845,10.3558,10.396133530308276
11436.0,1.784847,1.800028,0.015181,0.5099,0.7845,10.3558,10.397982107120592
11446.0,1.798944,1.814125,0.015181,0.5099,0.7453,10.3166,10.356046816232533
11456.0,1.801113,1.811956,0.010844,0.5099,0.7453,10.3166,10.356046816232533
11466.0,1.7881,1.804366,0.016265,0.4707,0.7453,10.395,10.432308257523834
11476.0,1.809787,1.826053,0.016265,0.4707,0.7845,10.3166,10.357086187726738
11486.0,1.793522,1.809787,0.016265,0.4707,0.7453,10.3166,10.354190752540731
11496.0,1.804366,1.819547,0.015181,0.5099,0.7453,10.395,10.43415042540599
11506.0,1.804366,1.818462,0.014097,0.4707,0.7845,10.3166,10.357086187726738
11516.0,1.800028,1.807619,0.00759,0.4707,0.7453,10.3558,10.39324897325182
11526.0,1.819547,1.83039,0.010844,0.5099,0.7453,10.395,10.43415042540599
11536.0,1.821715,1.833643,0.011928,0.4707,0.7453,10.3166,10.354190752540731
11546.0,1.867258,1.904126,0.036868,0.4707,0.7453,10.3166,10.354190752540731
11556.0,1.896536,1.951838,0.055302,0.5099,0.7453,10.3166,10.356046816232533
11566.0,1.91497,1.974609,0.059639,0.5099,0.7061,10.3558,10.392361082064076
11576.0,1.929066,1.9822,0.053133,0.5492,0.7453,10.3166,10.358056202299734
11586.0,1.877017,1.917139,0.040121,0.5099,0.7453,10.3166,10.356046816232533
11596.0,1.857499,1.881355,0.023856,0.5492,0.7453,10.3558,10.397099901895722
11606.0,1.809787,1.821715,0.011928,0.5492,0.7845,10.3166,10.36095055726066
11616.0,1.781594,1.782679,0.001084,0.5099,0.7845,10.395,10.437023678233176
11626.0,1.79786,1.807619,0.009759,0.5099,0.7845,10.3166,10.358941732628868
11636.0,1.785932,1.7881,0.002169,0.5099,0.7845,10.3558,10.397982107120592
11646.0,1.794607,1.802197,0.00759,0.5099,0.7845,10.2774,10.31990256833852
11656.0,1.800028,1.802197,0.002169,0.4707,0.7845,10.2774,10.318040002829996
11666.0,1.790269,1.792438,0.002169,0.4707,0.7845,10.3558,10.396133530308276
11676.0,1.808703,1.813041,0.004337,0.4707,0.7453,10.3558,10.39324897325182
11686.0,1.783763,1.784847,0.001084,0.4707,0.7845,10.3166,10.357086187726738
11696.0,1.682918,1.684002,0.001084,0.4707,0.7453,10.3166,10.354190752540731
11706.0,1.744726,1.767498,0.022771,0.5099,0.7845,10.3558,10.397982107120592
11716.0,2.265216,2.402929,0.137713,0.5099,0.7845,10.3166,10.358941732628868
11726.0,2.714139,2.984143,0.270004,0.4707,0.7453,10.3558,10.39324897325182
11736.0,2.278229,2.451725,0.173497,0.5099,0.7453,10.3558,10.395098063029517
11746.0,1.739304,1.726292,-0.013012,0.5099,0.7845,10.3166,10.358941732628868
11756.0,1.633038,1.599423,-0.033615,0.4707,0.8238,10.3166,10.360137088378705
11766.0,1.737136,1.706774,-0.030362,0.5099,0.7845,10.3558,10.397982107120592
11776.0,1.76316,1.753401,-0.009759,0.4707,0.7453,10.3558,10.39324897325182
11786.0,1.746895,1.725208,-0.021687,0.5099,0.7453,10.3166,10.356046816232533
11796.0,1.756654,1.742558,-0.014097,0.5099,0.7453,10.3166,10.356046816232533
11806.0,1.753401,1.742558,-0.010844,0.5492,0.8238,10.3558,10.403021711022236
11816.0,1.749064,1.739304,-0.009759,0.5492,0.7845,10.395,10.439017477234147
11826.0,1.767498,1.754485,-0.013012,0.5099,0.7845,10.3558,10.397982107120592
11836.0,1.752317,1.734967,-0.01735,0.4707,0.7845,10.3166,10.357086187726738
11846.0,1.767498,1.756654,-0.010844,0.5099,0.7453,10.3166,10.356046816232533
11856.0,1.766413,1.756654,-0.009759,0.5099,0.7845,10.3558,10.397982107120592
11866.0,1.758823,1.746895,-0.011928,0.5099,0.7453,10.3166,10.356046816232533
11876.0,1.78051,1.772919,-0.00759,0.4707,0.7845,10.3558,10.396133530308276
11886.0,1.768582,1.753401,-0.015181,0.4707,0.7845,10.2774,10.318040002829996
11896.0,1.815209,1.815209,0.0,0.5099,0.7061,10.3166,10.353299511749864
11906.0,1.864005,1.877017,0.013012,0.5099,0.7845,10.395,10.437023678233176
11916.0,1.89762,1.913886,0.016265,0.4707,0.8238,10.3166,10.360137088378705
11926.0,1.951838,1.993043,0.041205,0.4707,0.8238,10.2774,10.321102445475484
11936.0,1.971356,2.008224,0.036868,0.5099,0.7453,10.395,10.43415042540599
11946.0,2.00714,2.04943,0.04229,0.5099,0.7845,10.3166,10.358941732628868
11956.0,2.011477,2.055936,0.044459,0.4707,0.7061,10.3166,10.351442955453118
11966.0,1.994128,2.036418,0.04229,0.5099,0.7453,10.3558,10.395098063029517
11976.0,2.003887,2.036418,0.032531,0.5099,0.7453,10.3166,10.356046816232533
11986.0,1.950754,1.980031,0.029278,0.5099,0.7453,10.3166,10.356046816232533
11996.0,1.923645,1.947501,0.023856,0.5099,0.7453,10.3166,10.356046816232533
12006.0,1.878102,1.892198,0.014097,0.5099,0.7845,10.3166,10.358941732628868
12016.0,1.819547,1.819547,0.0,0.5099,0.7453,10.3166,10.356046816232533
12026.0,1.791353,1.783763,-0.00759,0.5099,0.7845,10.3166,10.358941732628868
12036.0,1.731714,1.706774,-0.02494,0.5099,0.8238,10.3166,10.361992086949304
12046.0,1.714364,1.690509,-0.023856,0.4707,0.7845,10.3166,10.357086187726738
12056.0,1.71328,1.691593,-0.021687,0.5099,0.7453,10.3166,10.356046816232533
12066.0,1.706774,1.682918,-0.023856,0.5099,0.7845,10.3166,10.358941732628868
12076.0,1.726292,1.701352,-0.02494,0.4707,0.7845,10.3558,10.396133530308276
12086.0,1.708943,1.687255,-0.021687,0.4707,0.7845,10.3166,10.357086187726738
12096.0,1.727377,1.708943,-0.018434,0.4707,0.7453,10.3166,10.354190752540731
12106.0,1.729545,1.711111,-0.018434,0.5492,0.7061,10.395,10.433418560088539
12116.0,1.723039,1.697015,-0.026025,0.5099,0.7845,10.3166,10.358941732628868
12126.0,1.741473,1.726292,-0.015181,0.5099,0.7453,10.3166,10.356046816232533
12136.0,1.725208,1.706774,-0.018434,0.5099,0.7453,10.3166,10.356046816232533
12146.0,1.743642,1.725208,-0.018434,0.4707,0.7453,10.3166,10.354190752540731
12156.0,1.743642,1.729545,-0.014097,0.5099,0.7453,10.3166,10.356046816232533
12166.0,1.73822,1.72087,-0.01735,0.4707,0.7845,10.3166,10.357086187726738
12176.0,1.754485,1.741473,-0.013012,0.5099,0.7453,10.3558,10.395098063029517
12186.0,1.742558,1.725208,-0.01735,0.4707,0.7453,10.3166,10.354190752540731
12196.0,1.753401,1.743642,-0.009759,0.4707,0.7845,10.3166,10.357086187726738
12206.0,1.753401,1.743642,-0.009759,0.5492,0.7061,10.3558,10.394363448042405
12216.0,1.749064,1.734967,-0.014097,0.4707,0.7061,10.2774,10.312375403368518
12226.0,1.770751,1.756654,-0.014097,0.5099,0.7453,10.3166,10.356046816232533
12236.0,1.754485,1.739304,-0.015181,0.4707,0.7453,10.3558,10.39324897325182
12246.0,1.766413,1.757738,-0.008675,0.4707,0.7453,10.3166,10.354190752540731
12256.0,1.767498,1.760992,-0.006506,0.5099,0.7453,10.3558,10.395098063029517
12266.0,1.760992,1.754485,-0.006506,0.4707,0.7453,10.3558,10.39324897325182
12276.0,1.78051,1.776173,-0.004337,0.4707,0.7845,10.2774,10.318040002829996
12286.0,1.757738,1.756654,-0.001084,0.4707,0.7453,10.2774,10.315133607472083
12296.0,1.779426,1.776173,-0.003253,0.5099,0.7845,10.3558,10.397982107120592
12306.0,1.776173,1.772919,-0.003253,0.5099,0.7453,10.3558,10.395098063029517
12316.0,1.765329,1.764245,-0.001084,0.5099,0.7845,10.2381,10.2807650430306
12326.0,1.784847,1.7881,0.003253,0.5099,0.7453,10.3166,10.356046816232533
12336.0,1.766413,1.775088,0.008675,0.4707,0.7845,10.3558,10.396133530308276
12346.0,1.783763,1.7881,0.004337,0.4707,0.7845,10.3166,10.357086187726738
12356.0,1.785932,1.785932,0.0,0.4707,0.7061,10.2774,10.312375403368518
12366.0,1.776173,1.78051,0.004337,0.5099,0.7845,10.3558,10.397982107120592
12376.0,1.793522,1.804366,0.010844,0.5099,0.7845,10.3166,10.358941732628868
12386.0,1.781594,1.779426,-0.002169,0.4707,0.7845,10.3558,10.396133530308276
12396.0,1.795691,1.79786,0.002169,0.5099,0.7845,10.3166,10.358941732628868
12406.0,1.790269,1.798944,0.008675,0.4707,0.7845,10.3166,10.357086187726738
12416.0,1.781594,1.787016,0.005422,0.5099,0.7845,10.395,10.437023678233176
12426.0,1.808703,1.809787,0.001084,0.4707,0.7845,10.3558,10.396133530308276
12436.0,1.794607,1.793522,-0.001084,0.4707,0.7061,10.3558,10.390511505214747
12446.0,1.807619,1.807619,0.0,0.5099,0.7453,10.3166,10.356046816232533
12456.0,1.796775,1.808703,0.011928,0.4707,0.7845,10.3166,10.357086187726738
12466.0,1.791353,1.798944,0.00759,0.5099,0.7453,10.3166,10.356046816232533
12476.0,1.809787,1.819547,0.009759,0.5492,0.7061,10.3166,10.355309430915137
12486.0,1.791353,1.801113,0.009759,0.5099,0.7453,10.3166,10.356046816232533
12496.0,1.809787,1.811956,0.002169,0.5099,0.7453,10.3558,10.395098063029517
12506.0,1.806534,1.813041,0.006506,0.5099,0.7845,10.3558,10.397982107120592
12516.0,1.796775,1.802197,0.005422,0.5099,0.7845,10.2774,10.31990256833852
12526.0,1.820631,1.824968,0.004337,0.4707,0.7453,10.3558,10.39324897325182
12536.0,1.819547,1.833643,0.014097,0.5099,0.7845,10.3558,10.397982107120592
12546.0,1.871596,1.900873,0.029278,0.5099,0.7453,10.3166,10.356046816232533
12556.0,1.89762,1.955091,0.057471,0.4707,0.7845,10.3166,10.357086187726738
12566.0,1.920392,1.974609,0.054218,0.4707,0.7453,10.3166,10.354190752540731
12576.0,1.927982,1.991959,0.063977,0.4707,0.7453,10.395,10.432308257523834
12586.0,1.883524,1.923645,0.040121,0.5099,0.7845,10.3166,10.358941732628868
12596.0,1.853162,1.877017,0.023856,0.5099,0.8238,10.395,10.440051218744092
12606.0,1.809787,1.813041,0.003253,0.5099,0.7845,10.2774,10.31990256833852
12616.0,1.784847,1.779426,-0.005422,0.4707,0.7845,10.3558,10.396133530308276
12626.0,1.798944,1.809787,0.010844,0.4707,0.7453,10.3166,10.354190752540731
12636.0,1.781594,1.790269,0.008675,0.4315,0.7453,10.3166,10.35248278916705
12646.0,1.795691,1.800028,0.004337,0.4707,0.7845,10.3166,10.357086187726738
12656.0,1.795691,1.800028,0.004337,0.4707,0.7061,10.3558,10.390511505214747
12666.0,1.781594,1.790269,0.008675,0.5099,0.7061,10.3166,10.353299511749864
12676.0,1.809787,1.813041,0.003253,0.5099,0.7061,10.3166,10.353299511749864
12686.0,1.790269,1.784847,-0.005422,0.5099,0.7845,10.3558,10.397982107120592
12696.0,1.678581,1.685087,0.006506,0.5099,0.7453,10.3558,10.395098063029517
12706.0,1.73822,1.770751,0.032531,0.5099,0.7845,10.2774,10.31990256833852
12716.0,2.263048,2.405098,0.14205,0.5492,0.7845,10.3558,10.399983390852123
12726.0,2.710886,2.98089,0.270004,0.4707,0.7845,10.3166,10.357086187726738
12736.0,2.274976,2.449557,0.174581,0.4707,0.7845,10.3166,10.357086187726738
12746.0,1.740389,1.727377,-0.013012,0.4315,0.7453,10.3558,10.391547429521745
12756.0,1.635206,1.602676,-0.032531,0.4707,0.7061,10.3558,10.390511505214747
12766.0,1.73822,1.698099,-0.040121,0.4707,0.7453,10.3558,10.39324897325182
12776.0,1.769666,1.742558,-0.027109,0.4707,0.7453,10.3166,10.354190752540731
12786.0,1.745811,1.725208,-0.020603,0.5099,0.7061,10.3166,10.353299511749864
12796.0,1.762076,1.73822,-0.023856,0.4707,0.7061,10.3558,10.390511505214747
12806.0,1.760992,1.751232,-0.009759,0.4707,0.7845,10.3558,10.396133530308276
12816.0,1.753401,1.734967,-0.018434,0.4707,0.7453,10.2774,10.315133607472083
12826.0,1.774004,1.757738,-0.016265,0.5099,0.8238,10.3166,10.361992086949304
12836.0,1.752317,1.732798,-0.019518,0.5099,0.8238,10.3558,10.401021011900706
12846.0,1.767498,1.753401,-0.014097,0.4707,0.8238,10.3166,10.360137088378705
12856.0,1.767498,1.756654,-0.010844,0.5099,0.7845,10.3558,10.397982107120592
12866.0,1.753401,1.747979,-0.005422,0.4707,0.863,10.3558,10.402351711512162
12876.0,1.78051,1.779426,-0.001084,0.4707,0.8238,10.3166,10.360137088378705
12886.0,1.766413,1.757738,-0.008675,0.5099,0.863,10.2774,10.326166654184892
12896.0,1.819547,1.826053,0.006506,0.4315,0.8238,10.3166,10.358430105474477
12906.0,1.867258,1.880271,0.013012,0.5099,0.7845,10.395,10.437023678233176
12916.0,1.895451,1.919307,0.023856,0.4707,0.7453,10.2774,10.315133607472083
12926.0,1.954007,1.995212,0.041205,0.4707,0.7453,10.3166,10.354190752540731
12936.0,1.970272,2.008224,0.037952,0.4707,0.7061,10.395,10.429581041441693
12946.0,2.008224,2.046177,0.037952,0.5099,0.7061,10.3166,10.353299511749864
12956.0,2.009309,2.064611,0.055302,0.4707,0.7061,10.3166,10.351442955453118
12966.0,1.991959,2.035333,0.043374,0.5099,0.7453,10.3166,10.356046816232533
12976.0,2.002803,2.042924,0.040121,0.5099,0.7453,10.3558,10.395098063029517
12986.0,1.946416,1.98979,0.043374,0.4707,0.7845,10.3166,10.357086187726738
12996.0,1.924729,1.951838,0.027109,0.5099,0.7453,10.3166,10.356046816232533
13006.0,1.878102,1.89762,0.019518,0.4707,0.7845,10.395,10.435182017578802
13016.0,1.816294,1.820631,0.004337,0.4707,0.8238,10.3166,10.360137088378705
13026.0,1.791353,1.782679,-0.008675,0.5492,0.7845,10.2774,10.321918990672229
13036.0,1.729545,1.706774,-0.022771,0.5099,0.7845,10.3166,10.358941732628868
13046.0,1.705689,1.686171,-0.019518,0.5099,0.7453,10.3166,10.356046816232533
13056.0,1.712196,1.691593,-0.020603,0.4707,0.7453,10.3166,10.354190752540731
13066.0,1.702436,1.682918,-0.019518,0.4707,0.7453,10.2774,10.315133607472083
13076.0,1.725208,1.711111,-0.014097,0.5099,0.7061,10.3558,10.392361082064076
13086.0,1.710027,1.693762,-0.016265,0.5099,0.7061,10.3558,10.392361082064076
13096.0,1.73063,1.703521,-0.027109,0.4707,0.7845,10.3166,10.357086187726738
13106.0,1.73063,1.718702,-0.011928,0.5099,0.7453,10.3558,10.395098063029517
13116.0,1.72087,1.705689,-0.015181,0.5099,0.7453,10.395,10.43415042540599
13126.0,1.742558,1.73063,-0.011928,0.5099,0.7453,10.2774,10.316996697682907
13136.0,1.725208,1.714364,-0.010844,0.5099,0.7845,10.3558,10.397982107120592
13146.0,1.745811,1.737136,-0.008675,0.4707,0.7845,10.3558,10.396133530308276
13156.0,1.746895,1.734967,-0.011928,0.5492,0.7845,10.3558,10.399983390852123
13166.0,1.733883,1.721955,-0.011928,0.5099,0.7845,10.3558,10.397982107120592
13176.0,1.75557,1.753401,-0.002169,0.4707,0.7453,10.3166,10.354190752540731
13186.0,1.743642,1.732798,-0.010844,0.5099,0.7845,10.2774,10.31990256833852
13196.0,1.756654,1.751232,-0.005422,0.5099,0.7845,10.3558,10.397982107120592
13206.0,1.757738,1.752317,-0.005422,0.4707,0.7845,10.395,10.435182017578802
13216.0,1.747979,1.737136,-0.010844,0.5099,0.7061,10.3558,10.392361082064076
13226.0,1.769666,1.768582,-0.001084,0.4707,0.7845,10.3166,10.357086187726738
13236.0,1.753401,1.746895,-0.006506,0.4707,0.7845,10.3166,10.357086187726738
13246.0,1.760992,1.766413,0.005422,0.4315,0.7845,10.3558,10.394432458773302
13256.0,1.769666,1.766413,-0.003253,0.4315,0.7845,10.2381,10.277174908991283
13266.0,1.753401,1.753401,0.0,0.4707,0.7061,10.3558,10.390511505214747
13276.0,1.78051,1.783763,0.003253,0.5099,0.7845,10.2774,10.31990256833852
13286.0,1.754485,1.762076,0.00759,0.5492,0.7453,10.2381,10.279872778395655
13296.0,1.770751,1.781594,0.010844,0.5099,0.7453,10.3166,10.356046816232533
13306.0,1.771835,1.7881,0.016265,0.5099,0.7061,10.3558,10.392361082064076
13316.0,1.767498,1.770751,0.003253,0.4707,0.7453,10.395,10.432308257523834
13326.0,1.784847,1.79786,0.013012,0.5492,0.7453,10.3166,10.358056202299734
13336.0,1.766413,1.779426,0.013012,0.4707,0.7453,10.3166,10.354190752540731
13346.0,1.78051,1.7881,0.00759,0.5099,0.7845,10.2774,10.31990256833852
13356.0,1.7881,1.793522,0.005422,0.5099,0.8238,10.2774,10.322964458429565
13366.0,1.781594,1.781594,0.0,0.4707,0.7845,10.3166,10.357086187726738
13376.0,1.793522,1.809787,0.016265,0.5099,0.7845,10.3558,10.397982107120592
13386.0,1.781594,1.783763,0.002169,0.4707,0.7845,10.3166,10.357086187726738
13396.0,1.794607,1.80545,0.010844,0.5099,0.7845,10.2774,10.31990256833852
13406.0,1.795691,1.798944,0.003253,0.4707,0.7845,10.3558,10.396133530308276
13416.0,1.784847,1.790269,0.005422,0.5099,0.8238,10.3166,10.361992086949304
13426.0,1.806534,1.815209,0.008675,0.4707,0.7845,10.3166,10.357086187726738
13436.0,1.791353,1.796775,0.005422,0.5099,0.7061,10.3558,10.392361082064076
13446.0,1.800028,1.809787,0.009759,0.4707,0.7845,10.3166,10.357086187726738
13456.0,1.807619,1.815209,0.00759,0.5099,0.7845,10.3166,10.358941732628868
13466.0,1.79786,1.798944,0.001084,0.4707,0.7453,10.3166,10.354190752540731
13476.0,1.811956,1.823884,0.011928,0.4707,0.7845,10.2774,10.318040002829996
13486.0,1.79786,1.800028,0.002169,0.5099,0.7453,10.3558,10.395098063029517
13496.0,1.80545,1.813041,0.00759,0.4315,0.7453,10.3558,10.391547429521745
13506.0,1.802197,1.818462,0.016265,0.5099,0.7845,10.2774,10.31990256833852
13516.0,1.794607,1.807619,0.013012,0.4707,0.6669,10.395,10.427000484319542
13526.0,1.810872,1.827137,0.016265,0.5099,0.7845,10.3166,10.358941732628868
13536.0,1.823884,1.834728,0.010844,0.4707,0.7845,10.3166,10.357086187726738
13546.0,1.867258,1.900873,0.033615,0.5099,0.8238,10.3166,10.361992086949304
13556.0,1.904126,1.955091,0.050965,0.4707,0.7845,10.2381,10.278895385691985
13566.0,1.913886,1.975694,0.061808,0.4707,0.8238,10.2381,10.281969487408528
13576.0,1.923645,1.986537,0.062893,0.5099,0.7453,10.3558,10.395098063029517
13586.0,1.875933,1.923645,0.047712,0.4707,0.7453,10.2774,10.315133607472083
13596.0,1.840149,1.878102,0.037952,0.5099,0.7453,10.3166,10.356046816232533
13606.0,1.809787,1.814125,0.004337,0.5099,0.8238,10.3558,10.401021011900706
13616.0,1.779426,1.776173,-0.003253,0.4707,0.7845,10.395,10.435182017578802
13626.0,1.806534,1.807619,0.001084,0.4707,0.7061,10.395,10.429581041441693
13636.0,1.784847,1.782679,-0.002169,0.5099,0.7453,10.3558,10.395098063029517
13646.0,1.793522,1.796775,0.003253,0.5099,0.7845,10.395,10.437023678233176
13656.0,1.796775,1.80545,0.008675,0.5099,0.7845,10.2774,10.31990256833852
13666.0,1.784847,1.784847,0.0,0.4707,0.7453,10.3558,10.39324897325182
13676.0,1.802197,1.808703,0.006506,0.4315,0.7845,10.3558,10.394432458773302
13686.0,1.785932,1.7881,0.002169,0.4707,0.7453,10.2774,10.315133607472083
13696.0,1.679665,1.679665,0.0,0.5099,0.7845,10.395,10.437023678233176
13706.0,1.739304,1.762076,0.022771,0.5099,0.7845,10.3166,10.358941732628868
13716.0,2.260879,2.396423,0.135544,0.5099,0.7845,10.3558,10.397982107120592
13726.0,2.714139,2.98089,0.266751,0.4707,0.8238,10.3166,10.360137088378705
13736.0,2.271722,2.45281,0.181087,0.4707,0.8238,10.3166,10.360137088378705
13746.0,1.742558,1.725208,-0.01735,0.4707,0.7845,10.3558,10.396133530308276
13756.0,1.637375,1.598338,-0.039037,0.5099,0.7845,10.3166,10.358941732628868
13766.0,1.734967,1.698099,-0.036868,0.5099,0.7061,10.3558,10.392361082064076
13776.0,1.766413,1.749064,-0.01735,0.4707,0.7845,10.3166,10.357086187726738
13786.0,1.741473,1.725208,-0.016265,0.4707,0.8238,10.3558,10.399172975289911
13796.0,1.756654,1.737136,-0.019518,0.5492,0.8238,10.3558,10.403021711022236
13806.0,1.76316,1.73822,-0.02494,0.4707,0.7845,10.3558,10.396133530308276
13816.0,1.751232,1.73063,-0.020603,0.5099,0.7845,10.3558,10.397982107120592
13826.0,1.776173,1.758823,-0.01735,0.5099,0.8238,10.3166,10.361992086949304
13836.0,1.754485,1.745811,-0.008675,0.5099,0.7845,10.3166,10.358941732628868
13846.0,1.769666,1.752317,-0.01735,0.5099,0.7453,10.3166,10.356046816232533
13856.0,1.776173,1.758823,-0.01735,0.5492,0.7453,10.2774,10.319013687848273
13866.0,1.764245,1.740389,-0.023856,0.5099,0.7453,10.3558,10.395098063029517
13876.0,1.779426,1.768582,-0.010844,0.5099,0.7845,10.395,10.437023678233176
13886.0,1.772919,1.75557,-0.01735,0.4707,0.7845,10.3558,10.396133530308276
13896.0,1.8228,1.815209,-0.00759,0.4707,0.7845,10.3558,10.396133530308276
13906.0,1.866174,1.874849,0.008675,0.5099,0.7453,10.395,10.43415042540599
13916.0,1.895451,1.909548,0.014097,0.4707,0.7845,10.3558,10.396133530308276
13926.0,1.949669,1.991959,0.04229,0.4707,0.7845,10.3166,10.357086187726738
13936.0,1.980031,2.008224,0.028193,0.5099,0.7845,10.3558,10.397982107120592
13946.0,2.006056,2.042924,0.036868,0.4707,0.7845,10.3166,10.357086187726738
13956.0,2.013646,2.064611,0.050965,0.5099,0.7845,10.3166,10.358941732628868
13966.0,1.995212,2.045092,0.04988,0.5099,0.7845,10.3558,10.397982107120592
13976.0,1.99955,2.04943,0.04988,0.5099,0.7845,10.3166,10.358941732628868
13986.0,1.948585,1.993043,0.044459,0.5492,0.7061,10.3166,10.355309430915137
13996.0,1.923645,1.950754,0.027109,0.5099,0.7453,10.3166,10.356046816232533
14006.0,1.881355,1.900873,0.019518,0.4707,0.7845,10.2774,10.318040002829996
14016.0,1.823884,1.824968,0.001084,0.5492,0.7453,10.3166,10.358056202299734
14026.0,1.795691,1.787016,-0.008675,0.4707,0.7845,10.3166,10.357086187726738
14036.0,1.737136,1.72087,-0.016265,0.5099,0.7845,10.3166,10.358941732628868
14046.0,1.705689,1.693762,-0.011928,0.5099,0.7845,10.3166,10.358941732628868
14056.0,1.71328,1.69593,-0.01735,0.5099,0.7453,10.395,10.43415042540599
14066.0,1.71328,1.684002,-0.029278,0.5099,0.7453,10.395,10.43415042540599
14076.0,1.727377,1.710027,-0.01735,0.4707,0.7845,10.3166,10.357086187726738
14086.0,1.715449,1.697015,-0.018434,0.4707,0.7453,10.3558,10.39324897325182
14096.0,1.724123,1.707858,-0.016265,0.5099,0.7845,10.3558,10.397982107120592
14106.0,1.733883,1.717617,-0.016265,0.5099,0.7845,10.3558,10.397982107120592
14116.0,1.723039,1.702436,-0.020603,0.4707,0.7845,10.3558,10.396133530308276
14126.0,1.743642,1.732798,-0.010844,0.5099,0.7061,10.3558,10.392361082064076
14136.0,1.727377,1.71328,-0.014097,0.5099,0.7061,10.3558,10.392361082064076
14146.0,1.742558,1.728461,-0.014097,0.4707,0.7845,10.2774,10.318040002829996
14156.0,1.745811,1.739304,-0.006506,0.5099,0.7453,10.3166,10.356046816232533
14166.0,1.73822,1.725208,-0.013012,0.5099,0.7453,10.3166,10.356046816232533
14176.0,1.753401,1.745811,-0.00759,0.5099,0.7453,10.395,10.43415042540599
14186.0,1.739304,1.736051,-0.003253,0.5099,0.7453,10.3558,10.395098063029517
14196.0,1.750148,1.744726,-0.005422,0.4707,0.7845,10.3558,10.396133530308276
14206.0,1.754485,1.749064,-0.005422,0.5099,0.8238,10.2774,10.322964458429565
14216.0,1.741473,1.731714,-0.009759,0.4707,0.7845,10.3558,10.396133530308276
14226.0,1.760992,1.767498,0.006506,0.5099,0.7453,10.3166,10.356046816232533
14236.0,1.753401,1.747979,-0.005422,0.4315,0.7845,10.3558,10.394432458773302
14246.0,1.764245,1.759907,-0.004337,0.5099,0.7453,10.3558,10.395098063029517
14256.0,1.766413,1.768582,0.002169,0.4707,0.7845,10.395,10.435182017578802
14266.0,1.754485,1.751232,-0.003253,0.5099,0.7453,10.3558,10.395098063029517
14276.0,1.779426,1.776173,-0.003253,0.4707,0.7845,10.3558,10.396133530308276
14286.0,1.766413,1.757738,-0.008675,0.4707,0.7453,10.3558,10.39324897325182
14296.0,1.774004,1.777257,0.003253,0.5099,0.7453,10.3166,10.356046816232533
14306.0,1.78051,1.787016,0.006506,0.5884,0.7061,10.2381,10.279274457859367
14316.0,1.769666,1.769666,0.0,0.5099,0.7453,10.395,10.43415042540599
14326.0,1.7881,1.791353,0.003253,0.5099,0.7845,10.4343,10.476166032953087
14336.0,1.781594,1.776173,-0.005422,0.5099,0.7453,10.2381,10.277848106972586
14346.0,1.785932,1.782679,-0.003253,0.4707,0.7845,10.2774,10.318040002829996
14356.0,1.790269,1.79786,0.00759,0.5099,0.7845,10.395,10.437023678233176
14366.0,1.776173,1.78051,0.004337,0.4315,0.8238,10.395,10.43651587887452
14376.0,1.795691,1.804366,0.008675,0.4315,0.8238,10.2381,10.28024952518177
14386.0,1.779426,1.785932,0.006506,0.4315,0.7845,10.3166,10.355378701911388
14396.0,1.791353,1.79786,0.006506,0.4707,0.7845,10.4343,10.474331254547948
14406.0,1.79786,1.798944,0.001084,0.4707,0.7453,10.3166,10.354190752540731
14416.0,1.783763,1.782679,-0.001084,0.4707,0.7453,10.2381,10.275977918913606
14426.0,1.801113,1.813041,0.011928,0.4707,0.7845,10.395,10.435182017578802
14436.0,1.785932,1.798944,0.013012,0.5099,0.7453,10.3166,10.356046816232533
14446.0,1.802197,1.80545,0.003253,0.5099,0.7453,10.3166,10.356046816232533
14456.0,1.800028,1.814125,0.014097,0.5099,0.7453,10.3558,10.395098063029517
14466.0,1.790269,1.79786,0.00759,0.4707,0.7453,10.395,10.432308257523834
14476.0,1.809787,1.824968,0.015181,0.5099,0.7061,10.3166,10.353299511749864
14486.0,1.79786,1.802197,0.004337,0.4707,0.7061,10.3166,10.351442955453118
14496.0,1.798944,1.809787,0.010844,0.5099,0.7061,10.3558,10.392361082064076
14506.0,1.803281,1.821715,0.018434,0.5099,0.7453,10.3558,10.395098063029517
14516.0,1.79786,1.806534,0.008675,0.4707,0.7845,10.2774,10.318040002829996
14526.0,1.813041,1.832559,0.019518,0.5099,0.8238,10.3166,10.361992086949304
14536.0,1.819547,1.833643,0.014097,0.5492,0.8238,10.3558,10.403021711022236
14546.0,1.867258,1.899789,0.032531,0.4707,0.8238,10.3558,10.399172975289911
14556.0,1.905211,1.956175,0.050965,0.5099,0.8238,10.3166,10.361992086949304
14566.0,1.907379,1.972441,0.065061,0.5099,0.7845,10.3166,10.358941732628868
14576.0,1.920392,1.991959,0.071567,0.4707,0.7453,10.2774,10.315133607472083
14586.0,1.874849,1.924729,0.04988,0.4707,0.7453,10.3166,10.354190752540731
14596.0,1.837981,1.87268,0.034699,0.5099,0.7453,10.2774,10.316996697682907
14606.0,1.804366,1.8228,0.018434,0.5099,0.7061,10.3166,10.353299511749864
14616.0,1.776173,1.78051,0.004337,0.4707,0.7061,10.3558,10.390511505214747
14626.0,1.79786,1.800028,0.002169,0.5099,0.7453,10.3166,10.356046816232533
14636.0,1.7881,1.791353,0.003253,0.5099,0.7061,10.2774,10.314238991801577
14646.0,1.794607,1.801113,0.006506,0.5099,0.7453,10.3166,10.356046816232533
14656.0,1.801113,1.807619,0.006506,0.4707,0.7453,10.3166,10.354190752540731
14666.0,1.785932,1.787016,0.001084,0.5099,0.7453,10.3166,10.356046816232533
14676.0,1.809787,1.809787,0.0,0.5099,0.7845,10.3166,10.358941732628868
14686.0,1.790269,1.7881,-0.002169,0.4707,0.8238,10.2774,10.321102445475484
14696.0,1.678581,1.679665,0.001084,0.5099,0.7453,10.2381,10.277848106972586
14706.0,1.743642,1.772919,0.029278,0.5099,0.7845,10.2774,10.31990256833852
14716.0,2.260879,2.399676,0.138797,0.4707,0.7845,10.3166,10.357086187726738
14726.0,2.714139,2.98089,0.266751,0.4707,0.7453,10.3166,10.354190752540731
14736.0,2.277144,2.448472,0.171328,0.4707,0.7845,10.3558,10.396133530308276
14746.0,1.739304,1.723039,-0.016265,0.5099,0.7845,10.3166,10.358941732628868
14756.0,1.638459,1.599423,-0.039037,0.4707,0.7845,10.3558,10.396133530308276
14766.0,1.73822,1.699183,-0.039037,0.4707,0.7453,10.3558,10.39324897325182
14776.0,1.766413,1.751232,-0.015181,0.4707,0.7453,10.3166,10.354190752540731
14786.0,1.745811,1.729545,-0.016265,0.4707,0.7845,10.3166,10.357086187726738
14796.0,1.75557,1.740389,-0.015181,0.5099,0.7453,10.3558,10.395098063029517
14806.0,1.757738,1.753401,-0.004337,0.5099,0.7453,10.3166,10.356046816232533
14816.0,1.753401,1.732798,-0.020603,0.5099,0.7453,10.2774,10.316996697682907
14826.0,1.768582,1.75557,-0.013012,0.5099,0.7845,10.3166,10.358941732628868
14836.0,1.759907,1.742558,-0.01735,0.4707,0.8238,10.2774,10.321102445475484
14846.0,1.768582,1.751232,-0.01735,0.5099,0.7453,10.2774,10.316996697682907
14856.0,1.769666,1.765329,-0.004337,0.5492,0.7061,10.3166,10.355309430915137
14866.0,1.757738,1.745811,-0.011928,0.5099,0.7061,10.3166,10.353299511749864
14876.0,1.774004,1.768582,-0.005422,0.5099,0.7453,10.3166,10.356046816232533
14886.0,1.774004,1.760992,-0.013012,0.4707,0.7453,10.3166,10.354190752540731
14896.0,1.818462,1.814125,-0.004337,0.4707,0.7845,10.3558,10.396133530308276
14906.0,1.871596,1.878102,0.006506,0.4707,0.7845,10.2774,10.318040002829996
14916.0,1.895451,1.909548,0.014097,0.5099,0.7845,10.3558,10.397982107120592
14926.0,1.949669,1.984369,0.034699,0.5099,0.7845,10.3166,10.358941732628868
14936.0,1.976778,2.009309,0.032531,0.4707,0.8238,10.3558,10.399172975289911
14946.0,2.002803,2.039671,0.036868,0.4707,0.7845,10.3166,10.357086187726738
14956.0,2.010393,2.064611,0.054218,0.5099,0.7845,10.3558,10.397982107120592
14966.0,1.994128,2.035333,0.041205,0.5099,0.7453,10.3166,10.356046816232533
14976.0,1.998465,2.037502,0.039037,0.5099,0.7453,10.2774,10.316996697682907
14986.0,1.946416,1.986537,0.040121,0.4707,0.7845,10.3558,10.396133530308276
14996.0,1.918223,1.942079,0.023856,0.4707,0.7845,10.3558,10.396133530308276
15006.0,1.879186,1.895451,0.016265,0.4707,0.7453,10.2774,10.315133607472083
15016.0,1.814125,1.819547,0.005422,0.5099,0.7453,10.3166,10.356046816232533
15026.0,1.790269,1.790269,0.0,0.5492,0.7453,10.3558,10.397099901895722
15036.0,1.737136,1.718702,-0.018434,0.4707,0.7453,10.3166,10.354190752540731
15046.0,1.705689,1.682918,-0.022771,0.5099,0.7453,10.3166,10.356046816232533
15056.0,1.72087,1.699183,-0.021687,0.5099,0.7845,10.3558,10.397982107120592
15066.0,1.705689,1.682918,-0.022771,0.4707,0.7845,10.2381,10.278895385691985
15076.0,1.731714,1.705689,-0.026025,0.5099,0.7845,10.395,10.437023678233176
15086.0,1.718702,1.697015,-0.021687,0.4707,0.7845,10.2381,10.278895385691985
15096.0,1.72087,1.710027,-0.010844,0.5099,0.7453,10.3166,10.356046816232533
15106.0,1.729545,1.72087,-0.008675,0.5099,0.7453,10.3166,10.356046816232533
15116.0,1.726292,1.705689,-0.020603,0.5099,0.7845,10.3558,10.397982107120592
15126.0,1.745811,1.732798,-0.013012,0.5099,0.7845,10.3558,10.397982107120592
15136.0,1.73822,1.725208,-0.013012,0.5099,0.7845,10.3558,10.397982107120592
15146.0,1.737136,1.725208,-0.011928,0.5099,0.7845,10.3166,10.358941732628868
15156.0,1.754485,1.737136,-0.01735,0.4707,0.7061,10.3558,10.390511505214747
15166.0,1.741473,1.725208,-0.016265,0.5099,0.7845,10.2774,10.31990256833852
15176.0,1.753401,1.752317,-0.001084,0.5099,0.7061,10.2774,10.314238991801577
15186.0,1.743642,1.737136,-0.006506,0.5099,0.7061,10.3558,10.392361082064076
15196.0,1.753401,1.743642,-0.009759,0.4707,0.7845,10.395,10.435182017578802
15206.0,1.757738,1.753401,-0.004337,0.4707,0.7453,10.395,10.432308257523834
15216.0,1.746895,1.743642,-0.003253,0.5099,0.7845,10.2774,10.31990256833852
15226.0,1.766413,1.76316,-0.003253,0.5492,0.7453,10.395,10.436144773334643
15236.0,1.758823,1.753401,-0.005422,0.4707,0.7453,10.3558,10.39324897325182
15246.0,1.766413,1.760992,-0.005422,0.4707,0.8238,10.3558,10.399172975289911
15256.0,1.772919,1.776173,0.003253,0.4707,0.7453,10.3558,10.39324897325182
15266.0,1.754485,1.75557,0.001084,0.4707,0.7453,10.3558,10.39324897325182
15276.0,1.78051,1.781594,0.001084,0.5099,0.7845,10.3166,10.358941732628868
15286.0,1.770751,1.774004,0.003253,0.4707,0.8238,10.3558,10.399172975289911
15296.0,1.769666,1.779426,0.009759,0.5099,0.7061,10.3558,10.392361082064076
15306.0,1.78051,1.782679,0.002169,0.5099,0.7061,10.3166,10.353299511749864
15316.0,1.764245,1.766413,0.002169,0.5099,0.7061,10.2774,10.314238991801577
15326.0,1.785932,1.795691,0.009759,0.5099,0.7845,10.3558,10.397982107120592
15336.0,1.781594,1.781594,0.0,0.5099,0.7453,10.3166,10.356046816232533
15346.0,1.782679,1.781594,-0.001084,0.5099,0.7845,10.3166,10.358941732628868
15356.0,1.791353,1.794607,0.003253,0.5099,0.7453,10.3166,10.356046816232533
15366.0,1.776173,1.776173,0.0,0.5492,0.7453,10.2774,10.319013687848273
15376.0,1.796775,1.806534,0.009759,0.5099,0.7845,10.2774,10.31990256833852
15386.0,1.781594,1.785932,0.004337,0.4707,0.7845,10.3558,10.396133530308276
15396.0,1.790269,1.784847,-0.005422,0.4707,0.7845,10.3558,10.396133530308276
15406.0,1.794607,1.808703,0.014097,0.5099,0.7845,10.3166,10.358941732628868
15416.0,1.781594,1.793522,0.011928,0.4707,0.7845,10.3166,10.357086187726738
15426.0,1.79786,1.80545,0.00759,0.5099,0.7061,10.3558,10.392361082064076
15436.0,1.791353,1.793522,0.002169,0.4707,0.7061,10.3166,10.351442955453118
15446.0,1.793522,1.79786,0.004337,0.5099,0.7845,10.3558,10.397982107120592
15456.0,1.808703,1.821715,0.013012,0.4707,0.7453,10.3558,10.39324897325182
15466.0,1.792438,1.800028,0.00759,0.5099,0.8238,10.2381,10.28383858585888
15476.0,1.807619,1.815209,0.00759,0.4707,0.7845,10.3558,10.396133530308276
15486.0,1.796775,1.80545,0.008675,0.4707,0.7845,10.3558,10.396133530308276
15496.0,1.79786,1.802197,0.004337,0.5099,0.7453,10.395,10.43415042540599
15506.0,1.813041,1.815209,0.002169,0.5099,0.7845,10.2774,10.31990256833852
15516.0,1.798944,1.801113,0.002169,0.5099,0.7845,10.3166,10.358941732628868
15526.0,1.809787,1.823884,0.014097,0.5099,0.7453,10.3558,10.395098063029517
15536.0,1.819547,1.835812,0.016265,0.5492,0.7061,10.3166,10.355309430915137
15546.0,1.861837,1.893283,0.031446,0.5099,0.7453,10.3558,10.395098063029517
15556.0,1.905211,1.954007,0.048796,0.4707,0.7845,10.3166,10.357086187726738
15566.0,1.91497,1.977862,0.062893,0.5099,0.7845,10.3558,10.397982107120592
15576.0,1.917139,1.98979,0.072652,0.4707,0.7061,10.3558,10.390511505214747
15586.0,1.888945,1.924729,0.035784,0.4707,0.7845,10.3558,10.396133530308276
15596.0,1.843402,1.871596,0.028193,0.4707,0.7845,10.3558,10.396133530308276
15606.0,1.819547,1.826053,0.006506,0.5099,0.7453,10.3166,10.356046816232533
15616.0,1.781594,1.779426,-0.002169,0.5099,0.7453,10.3558,10.395098063029517
15626.0,1.801113,1.807619,0.006506,0.4707,0.7845,10.3558,10.396133530308276
15636.0,1.794607,1.79786,0.003253,0.5099,0.7061,10.3558,10.392361082064076
15646.0,1.794607,1.795691,0.001084,0.4707,0.7845,10.3558,10.396133530308276
15656.0,1.804366,1.809787,0.005422,0.4315,0.7453,10.3166,10.35248278916705
15666.0,1.784847,1.793522,0.008675,0.5099,0.7061,10.3166,10.353299511749864
15676.0,1.809787,1.807619,-0.002169,0.5099,0.7061,10.3166,10.353299511749864
15686.0,1.795691,1.790269,-0.005422,0.5099,0.7845,10.3166,10.358941732628868
15696.0,1.679665,1.679665,0.0,0.4707,0.7845,10.3558,10.396133530308276
15706.0,1.753401,1.766413,0.013012,0.5099,0.7845,10.2774,10.31990256833852
15716.0,2.263048,2.400761,0.137713,0.4707,0.7845,10.2774,10.318040002829996
15726.0,2.714139,2.979806,0.265667,0.4707,0.7453,10.3166,10.354190752540731
15736.0,2.281482,2.457147,0.175665,0.4707,0.7453,10.3558,10.39324897325182
15746.0,1.727377,1.717617,-0.009759,0.4707,0.7845,10.2381,10.278895385691985
15756.0,1.641713,1.608098,-0.033615,0.5099,0.7453,10.3558,10.395098063029517
15766.0,1.734967,1.693762,-0.041205,0.4707,0.7453,10.3166,10.354190752540731
15776.0,1.762076,1.740389,-0.021687,0.5099,0.7453,10.3166,10.356046816232533
15786.0,1.751232,1.73063,-0.020603,0.5099,0.7845,10.2774,10.31990256833852
15796.0,1.753401,1.725208,-0.028193,0.5099,0.7453,10.3558,10.395098063029517
15806.0,1.76316,1.747979,-0.015181,0.5099,0.7453,10.3166,10.356046816232533
15816.0,1.749064,1.732798,-0.016265,0.5099,0.7845,10.2774,10.31990256833852
15826.0,1.767498,1.752317,-0.015181,0.4707,0.8238,10.2774,10.321102445475484
15836.0,1.762076,1.745811,-0.016265,0.4707,0.7453,10.3558,10.39324897325182
15846.0,1.753401,1.747979,-0.005422,0.5099,0.7453,10.3166,10.356046816232533
15856.0,1.771835,1.760992,-0.010844,0.5099,0.7453,10.3166,10.356046816232533
15866.0,1.757738,1.744726,-0.013012,0.5099,0.7061,10.3166,10.353299511749864
15876.0,1.78051,1.766413,-0.014097,0.5492,0.7453,10.2774,10.319013687848273
15886.0,1.771835,1.765329,-0.006506,0.5099,0.7453,10.3558,10.395098063029517
15896.0,1.809787,1.808703,-0.001084,0.4707,0.7453,10.3166,10.354190752540731
15906.0,1.862921,1.882439,0.019518,0.4315,0.8238,10.3166,10.358430105474477
15916.0,1.892198,1.91497,0.022771,0.5099,0.8238,10.3558,10.401021011900706
15926.0,1.948585,1.994128,0.045543,0.4315,0.7845,10.3558,10.394432458773302
15936.0,1.977862,2.02449,0.046627,0.4707,0.7453,10.3166,10.354190752540731
15946.0,1.990875,2.037502,0.046627,0.4707,0.7845,10.3558,10.396133530308276
15956.0,2.013646,2.068948,0.055302,0.5099,0.7845,10.3166,10.358941732628868
15966.0,1.98979,2.042924,0.053133,0.5099,0.7453,10.3166,10.356046816232533
15976.0,1.994128,2.040755,0.046627,0.4707,0.7845,10.3558,10.396133530308276
15986.0,1.952922,1.995212,0.04229,0.4707,0.7845,10.3166,10.357086187726738
15996.0,1.917139,1.942079,0.02494,0.4707,0.7845,10.3558,10.396133530308276
16006.0,1.881355,1.900873,0.019518,0.5099,0.7453,10.3558,10.395098063029517
16016.0,1.819547,1.821715,0.002169,0.5099,0.7845,10.3558,10.397982107120592
16026.0,1.781594,1.781594,0.0,0.5492,0.7061,10.3558,10.394363448042405
16036.0,1.737136,1.723039,-0.014097,0.5099,0.7845,10.395,10.437023678233176
16046.0,1.699183,1.681834,-0.01735,0.5492,0.7845,10.3166,10.36095055726066
16056.0,1.72087,1.703521,-0.01735,0.5492,0.7453,10.3558,10.397099901895722
16066.0,1.708943,1.681834,-0.027109,0.4707,0.7453,10.3166,10.354190752540731
16076.0,1.725208,1.708943,-0.016265,0.5099,0.7061,10.2774,10.314238991801577
16086.0,1.725208,1.702436,-0.022771,0.4707,0.7845,10.3166,10.357086187726738
16096.0,1.724123,1.699183,-0.02494,0.5099,0.7061,10.3166,10.353299511749864
16106.0,1.73822,1.727377,-0.010844,0.5099,0.7453,10.2774,10.316996697682907
16116.0,1.72087,1.707858,-0.013012,0.5099,0.7453,10.2774,10.316996697682907
16126.0,1.739304,1.73063,-0.008675,0.5099,0.7061,10.3558,10.392361082064076
16136.0,1.736051,1.725208,-0.010844,0.5099,0.7453,10.3558,10.395098063029517
16146.0,1.729545,1.719786,-0.009759,0.4707,0.7453,10.3166,10.354190752540731
16156.0,1.749064,1.741473,-0.00759,0.5099,0.7453,10.3166,10.356046816232533
16166.0,1.737136,1.725208,-0.011928,0.4707,0.7453,10.3558,10.39324897325182
16176.0,1.751232,1.742558,-0.008675,0.5099,0.7453,10.3166,10.356046816232533
16186.0,1.752317,1.741473,-0.010844,0.4707,0.7845,10.3558,10.396133530308276
16196.0,1.745811,1.737136,-0.008675,0.5099,0.7453,10.3166,10.356046816232533
16206.0,1.757738,1.756654,-0.001084,0.5099,0.7453,10.2774,10.316996697682907
16216.0,1.749064,1.742558,-0.006506,0.5099,0.7453,10.3166,10.356046816232533
16226.0,1.758823,1.75557,-0.003253,0.5099,0.7453,10.3558,10.395098063029517
16236.0,1.754485,1.760992,0.006506,0.5099,0.7453,10.3166,10.356046816232533
16246.0,1.749064,1.753401,0.004337,0.5099,0.7453,10.3558,10.395098063029517
16256.0,1.776173,1.777257,0.001084,0.5099,0.7845,10.3558,10.397982107120592
16266.0,1.756654,1.754485,-0.002169,0.4707,0.8238,10.3558,10.399172975289911
16276.0,1.779426,1.776173,-0.003253,0.4707,0.7845,10.2774,10.318040002829996
16286.0,1.770751,1.776173,0.005422,0.4707,0.7845,10.3558,10.396133530308276
16296.0,1.765329,1.762076,-0.003253,0.4707,0.7845,10.3166,10.357086187726738
16306.0,1.7881,1.790269,0.002169,0.5099,0.7845,10.3558,10.397982107120592
16316.0,1.765329,1.769666,0.004337,0.4707,0.7453,10.2774,10.315133607472083
16326.0,1.781594,1.784847,0.003253,0.4707,0.7453,10.3558,10.39324897325182
16336.0,1.781594,1.781594,0.0,0.5099,0.7453,10.3558,10.395098063029517
16346.0,1.775088,1.771835,-0.003253,0.5099,0.7453,10.3166,10.356046816232533
16356.0,1.796775,1.795691,-0.001084,0.5099,0.7845,10.3558,10.397982107120592
16366.0,1.778341,1.776173,-0.002169,0.4707,0.7845,10.4343,10.474331254547948
16376.0,1.791353,1.791353,0.0,0.4707,0.7845,10.2774,10.318040002829996
16386.0,1.785932,1.790269,0.004337,0.5492,0.7845,10.3558,10.399983390852123
16396.0,1.781594,1.781594,0.0,0.4707,0.8238,10.2774,10.321102445475484
16406.0,1.804366,1.809787,0.005422,0.5099,0.8238,10.3166,10.361992086949304
16416.0,1.784847,1.785932,0.001084,0.5099,0.7845,10.2774,10.31990256833852
16426.0,1.79786,1.804366,0.006506,0.4707,0.7453,10.3558,10.39324897325182
16436.0,1.79786,1.801113,0.003253,0.5099,0.7453,10.2774,10.316996697682907
16446.0,1.794607,1.790269,-0.004337,0.4707,0.7845,10.3166,10.357086187726738
16456.0,1.807619,1.818462,0.010844,0.4315,0.7845,10.3166,10.355378701911388
16466.0,1.793522,1.79786,0.004337,0.5099,0.7453,10.3166,10.356046816232533
16476.0,1.80545,1.811956,0.006506,0.4707,0.8238,10.3558,10.399172975289911
16486.0,1.804366,1.810872,0.006506,0.5099,0.7845,10.3558,10.397982107120592
16496.0,1.796775,1.800028,0.003253,0.5099,0.7453,10.395,10.43415042540599
16506.0,1.809787,1.818462,0.008675,0.5099,0.7453,10.3558,10.395098063029517
16516.0,1.794607,1.80545,0.010844,0.5099,0.7845,10.3166,10.358941732628868
16526.0,1.808703,1.820631,0.011928,0.4707,0.7845,10.395,10.435182017578802
16536.0,1.824968,1.843402,0.018434,0.4707,0.7453,10.3558,10.39324897325182
16546.0,1.862921,1.893283,0.030362,0.4707,0.7453,10.3558,10.39324897325182
16556.0,1.910632,1.971356,0.060724,0.4707,0.7845,10.3558,10.396133530308276
16566.0,1.911717,1.971356,0.059639,0.4707,0.7845,10.3166,10.357086187726738
16576.0,1.920392,1.978947,0.058555,0.4707,0.7845,10.395,10.435182017578802
16586.0,1.892198,1.938826,0.046627,0.4707,0.7845,10.395,10.435182017578802
16596.0,1.843402,1.861837,0.018434,0.4707,0.7845,10.3558,10.396133530308276
16606.0,1.815209,1.824968,0.009759,0.5492,0.7845,10.3166,10.36095055726066
16616.0,1.78051,1.781594,0.001084,0.5492,0.7845,10.2774,10.321918990672229
16626.0,1.796775,1.802197,0.005422,0.4707,0.8238,10.2774,10.321102445475484
16636.0,1.79786,1.802197,0.004337,0.5099,0.7453,10.3166,10.356046816232533
16646.0,1.791353,1.7881,-0.003253,0.5099,0.7453,10.3558,10.395098063029517
16656.0,1.808703,1.810872,0.002169,0.4707,0.7845,10.3166,10.357086187726738
16666.0,1.790269,1.790269,0.0,0.5099,0.8238,10.3558,10.401021011900706
16676.0,1.80545,1.804366,-0.001084,0.5492,0.7845,10.4343,10.47815238388906
16686.0,1.794607,1.793522,-0.001084,0.5099,0.8238,10.3166,10.361992086949304
16696.0,1.669906,1.668821,-0.001084,0.5492,0.7453,10.2774,10.319013687848273
16706.0,1.749064,1.768582,0.019518,0.4707,0.8238,10.395,10.438210092252406
16716.0,2.265216,2.402929,0.137713,0.4707,0.7845,10.3166,10.357086187726738
16726.0,2.706549,2.971131,0.264582,0.5099,0.7845,10.3166,10.358941732628868
16736.0,2.28365,2.4604,0.17675,0.4315,0.7845,10.2774,10.316326054366447
16746.0,1.725208,1.708943,-0.016265,0.5099,0.7845,10.3558,10.397982107120592
16756.0,1.641713,1.612435,-0.029278,0.5099,0.7845,10.2774,10.31990256833852
16766.0,1.733883,1.707858,-0.026025,0.4707,0.7453,10.3166,10.354190752540731
16776.0,1.75557,1.73822,-0.01735,0.5099,0.7061,10.3558,10.392361082064076
16786.0,1.75557,1.739304,-0.016265,0.5099,0.7845,10.3166,10.358941732628868
16796.0,1.745811,1.727377,-0.018434,0.5099,0.7845,10.3558,10.397982107120592
16806.0,1.766413,1.753401,-0.013012,0.5099,0.8238,10.3558,10.401021011900706
16816.0,1.751232,1.73822,-0.013012,0.4707,0.7845,10.3166,10.357086187726738
16826.0,1.759907,1.747979,-0.011928,0.5099,0.8238,10.2774,10.322964458429565
16836.0,1.76316,1.753401,-0.009759,0.5099,0.7845,10.3558,10.397982107120592
16846.0,1.75557,1.742558,-0.013012,0.5099,0.7845,10.3166,10.358941732628868
16856.0,1.778341,1.762076,-0.016265,0.4707,0.7845,10.2774,10.318040002829996
16866.0,1.76316,1.749064,-0.014097,0.5099,0.7453,10.3558,10.395098063029517
16876.0,1.770751,1.762076,-0.008675,0.4707,0.7453,10.3558,10.39324897325182
16886.0,1.782679,1.781594,-0.001084,0.5099,0.7845,10.3166,10.358941732628868
16896.0,1.813041,1.804366,-0.008675,0.5099,0.7453,10.3166,10.356046816232533
16906.0,1.875933,1.880271,0.004337,0.4707,0.7845,10.3166,10.357086187726738
16916.0,1.900873,1.913886,0.013012,0.5492,0.7061,10.3166,10.355309430915137
16926.0,1.93991,1.980031,0.040121,0.4707,0.7453,10.3558,10.39324897325182
16936.0,1.980031,2.022321,0.04229,0.5099,0.7845,10.3558,10.397982107120592
16946.0,1.984369,2.033164,0.048796,0.5099,0.7845,10.3166,10.358941732628868
16956.0,2.021237,2.068948,0.047712,0.5099,0.7845,10.2774,10.31990256833852
16966.0,1.998465,2.042924,0.044459,0.5099,0.8238,10.2774,10.322964458429565
16976.0,1.991959,2.029911,0.037952,0.5099,0.8238,10.3558,10.401021011900706
16986.0,1.95726,2.006056,0.048796,0.5492,0.7845,10.2774,10.321918990672229
16996.0,1.91497,1.931235,0.016265,0.4707,0.7845,10.395,10.435182017578802
17006.0,1.881355,1.904126,0.022771,0.4707,0.7845,10.3558,10.396133530308276
17016.0,1.826053,1.827137,0.001084,0.4707,0.7453,10.3166,10.354190752540731
17026.0,1.787016,1.779426,-0.00759,0.4707,0.7453,10.2774,10.315133607472083
17036.0,1.746895,1.725208,-0.021687,0.4707,0.7845,10.2774,10.318040002829996
17046.0,1.703521,1.673159,-0.030362,0.5099,0.7845,10.3166,10.358941732628868
17056.0,1.723039,1.698099,-0.02494,0.4707,0.7845,10.3558,10.396133530308276
17066.0,1.71328,1.692677,-0.020603,0.4707,0.7453,10.3558,10.39324897325182
17076.0,1.721955,1.697015,-0.02494,0.5099,0.7453,10.3558,10.395098063029517
17086.0,1.727377,1.715449,-0.011928,0.4707,0.7453,10.3558,10.39324897325182
17096.0,1.717617,1.701352,-0.016265,0.5099,0.7845,10.2774,10.31990256833852
17106.0,1.740389,1.725208,-0.015181,0.5492,0.7845,10.2774,10.321918990672229
17116.0,1.725208,1.714364,-0.010844,0.4707,0.7453,10.3166,10.354190752540731
17126.0,1.73063,1.716533,-0.014097,0.4707,0.7845,10.3166,10.357086187726738
17136.0,1.742558,1.737136,-0.005422,0.4707,0.8238,10.3558,10.399172975289911
17146.0,1.73063,1.721955,-0.008675,0.4707,0.7845,10.3558,10.396133530308276
17156.0,1.749064,1.742558,-0.006506,0.5099,0.8238,10.3166,10.361992086949304
17166.0,1.73822,1.739304,0.001084,0.5099,0.7845,10.2774,10.31990256833852
17176.0,1.742558,1.739304,-0.003253,0.5099,0.7845,10.3166,10.358941732628868
17186.0,1.756654,1.751232,-0.005422,0.4707,0.7845,10.3558,10.396133530308276
17196.0,1.751232,1.731714,-0.019518,0.5099,0.7845,10.3558,10.397982107120592
17206.0,1.766413,1.752317,-0.014097,0.5099,0.7453,10.395,10.43415042540599
17216.0,1.753401,1.743642,-0.009759,0.5492,0.7453,10.3558,10.397099901895722
17226.0,1.75557,1.743642,-0.011928,0.4707,0.7845,10.3558,10.396133530308276
17236.0,1.767498,1.76316,-0.004337,0.5099,0.7845,10.2774,10.31990256833852
17246.0,1.753401,1.745811,-0.00759,0.5099,0.7453,10.3558,10.395098063029517
17256.0,1.771835,1.765329,-0.006506,0.4707,0.7453,10.2774,10.315133607472083
17266.0,1.767498,1.75557,-0.011928,0.5099,0.7845,10.3166,10.358941732628868
17276.0,1.768582,1.756654,-0.011928,0.4707,0.7845,10.3558,10.396133530308276
17286.0,1.78051,1.779426,-0.001084,0.4707,0.7845,10.395,10.435182017578802
17296.0,1.762076,1.76316,0.001084,0.5099,0.8238,10.2774,10.322964458429565
17306.0,1.784847,1.787016,0.002169,0.4707,0.7845,10.2774,10.318040002829996
17316.0,1.774004,1.777257,0.003253,0.5099,0.7453,10.2774,10.316996697682907
17326.0,1.774004,1.771835,-0.002169,0.5099,0.7845,10.3558,10.397982107120592
17336.0,1.7881,1.795691,0.00759,0.5099,0.7845,10.3166,10.358941732628868
17346.0,1.777257,1.774004,-0.003253,0.5099,0.7453,10.3166,10.356046816232533
17356.0,1.791353,1.794607,0.003253,0.5099,0.7845,10.3558,10.397982107120592
17366.0,1.781594,1.782679,0.001084,0.5099,0.7453,10.395,10.43415042540599
17376.0,1.781594,1.783763,0.002169,0.4315,0.7845,10.3558,10.394432458773302
17386.0,1.795691,1.80545,0.009759,0.5099,0.7845,10.3558,10.397982107120592
17396.0,1.777257,1.787016,0.009759,0.4707,0.7845,10.3558,10.396133530308276
17406.0,1.79786,1.809787,0.011928,0.4707,0.7845,10.395,10.435182017578802
17416.0,1.785932,1.795691,0.009759,0.5099,0.7453,10.3166,10.356046816232533
17426.0,1.7881,1.794607,0.006506,0.4707,0.7845,10.3166,10.357086187726738
17436.0,1.802197,1.815209,0.013012,0.5099,0.7453,10.3166,10.356046816232533
17446.0,1.782679,1.796775,0.014097,0.5099,0.7453,10.3558,10.395098063029517
17456.0,1.800028,1.810872,0.010844,0.5099,0.7453,10.3166,10.356046816232533
17466.0,1.798944,1.809787,0.010844,0.5492,0.7845,10.3166,10.36095055726066
17476.0,1.794607,1.804366,0.009759,0.5492,0.7061,10.3166,10.355309430915137
17486.0,1.80545,1.827137,0.021687,0.5099,0.7453,10.3166,10.356046816232533
17496.0,1.794607,1.80545,0.010844,0.5099,0.7453,10.3166,10.356046816232533
17506.0,1.808703,1.8228,0.014097,0.4707,0.8238,10.2774,10.321102445475484
17516.0,1.804366,1.813041,0.008675,0.4707,0.7453,10.3558,10.39324897325182
17526.0,1.795691,1.809787,0.014097,0.4707,0.7453,10.3558,10.39324897325182
17536.0,1.833643,1.84774,0.014097,0.4707,0.7845,10.3166,10.357086187726738
17546.0,1.85533,1.893283,0.037952,0.5099,0.7845,10.3558,10.397982107120592
17556.0,1.899789,1.955091,0.055302,0.4707,0.7453,10.3166,10.354190752540731
17566.0,1.923645,1.981115,0.057471,0.5099,0.7845,10.3166,10.358941732628868
17576.0,1.908464,1.963766,0.055302,0.5099,0.7845,10.395,10.437023678233176
17586.0,1.89762,1.949669,0.052049,0.4707,0.7845,10.3166,10.357086187726738
17596.0,1.840149,1.866174,0.026025,0.5099,0.7845,10.3558,10.397982107120592
17606.0,1.809787,1.813041,0.003253,0.4707,0.7845,10.3558,10.396133530308276
17616.0,1.785932,1.792438,0.006506,0.5099,0.7453,10.3558,10.395098063029517
17626.0,1.783763,1.790269,0.006506,0.4707,0.7845,10.3558,10.396133530308276
17636.0,1.801113,1.809787,0.008675,0.5099,0.7845,10.3166,10.358941732628868
17646.0,1.7881,1.791353,0.003253,0.5099,0.8238,10.3558,10.401021011900706
17656.0,1.798944,1.809787,0.010844,0.5099,0.7845,10.3166,10.358941732628868
17666.0,1.79786,1.801113,0.003253,0.5099,0.7453,10.3166,10.356046816232533
17676.0,1.793522,1.795691,0.002169,0.5099,0.7845,10.3166,10.358941732628868
17686.0,1.798944,1.80545,0.006506,0.5099,0.8238,10.3166,10.361992086949304
17696.0,1.667737,1.67099,0.003253,0.4315,0.7845,10.3558,10.394432458773302
17706.0,1.736051,1.770751,0.034699,0.5099,0.7061,10.2774,10.314238991801577
17716.0,2.270638,2.408351,0.137713,0.5492,0.7453,10.3558,10.397099901895722
17726.0,2.702211,2.959203,0.256992,0.5099,0.7061,10.3558,10.392361082064076
17736.0,2.291241,2.473412,0.182172,0.5099,0.7845,10.3166,10.358941732628868
17746.0,1.727377,1.715449,-0.011928,0.5099,0.7453,10.3558,10.395098063029517
17756.0,1.631953,1.600507,-0.031446,0.5099,0.7453,10.3166,10.356046816232533
17766.0,1.743642,1.71328,-0.030362,0.5099,0.7453,10.3166,10.356046816232533
17776.0,1.752317,1.725208,-0.027109,0.4707,0.7453,10.3558,10.39324897325182
17786.0,1.753401,1.747979,-0.005422,0.5099,0.7845,10.3558,10.397982107120592
17796.0,1.745811,1.734967,-0.010844,0.5099,0.8238,10.3166,10.361992086949304
17806.0,1.759907,1.753401,-0.006506,0.5099,0.7845,10.3166,10.358941732628868
17816.0,1.754485,1.753401,-0.001084,0.5099,0.7845,10.3166,10.358941732628868
17826.0,1.749064,1.739304,-0.009759,0.5099,0.7453,10.3558,10.395098063029517
17836.0,1.759907,1.757738,-0.002169,0.4707,0.7453,10.3166,10.354190752540731
17846.0,1.753401,1.740389,-0.013012,0.4707,0.7845,10.3558,10.396133530308276
17856.0,1.762076,1.751232,-0.010844,0.4707,0.7453,10.3166,10.354190752540731
17866.0,1.772919,1.759907,-0.013012,0.5099,0.7453,10.2774,10.316996697682907
17876.0,1.756654,1.751232,-0.005422,0.5099,0.7453,10.3558,10.395098063029517
17886.0,1.790269,1.779426,-0.010844,0.5099,0.7453,10.3166,10.356046816232533
17896.0,1.811956,1.802197,-0.009759,0.5099,0.7453,10.3166,10.356046816232533
17906.0,1.866174,1.874849,0.008675,0.4707,0.7845,10.3166,10.357086187726738
17916.0,1.909548,1.925813,0.016265,0.5099,0.7453,10.3558,10.395098063029517
17926.0,1.936657,1.958344,0.021687,0.4707,0.8238,10.3558,10.399172975289911
17936.0,1.990875,2.027743,0.036868,0.5099,0.7453,10.3558,10.395098063029517
17946.0,1.993043,2.034249,0.041205,0.5492,0.7453,10.3558,10.397099901895722
17956.0,2.008224,2.055936,0.047712,0.4707,0.7845,10.3166,10.357086187726738
17966.0,2.002803,2.051599,0.048796,0.4707,0.8238,10.2774,10.321102445475484
17976.0,1.9822,2.020152,0.037952,0.5099,0.7453,10.3166,10.356046816232533
17986.0,1.960513,2.011477,0.050965,0.5099,0.7845,10.3166,10.358941732628868
17996.0,1.91497,1.938826,0.023856,0.5099,0.7453,10.3166,10.356046816232533
18006.0,1.875933,1.894367,0.018434,0.4707,0.7061,10.3166,10.351442955453118
18016.0,1.834728,1.837981,0.003253,0.4707,0.8238,10.3166,10.360137088378705
18026.0,1.777257,1.762076,-0.015181,0.4707,0.7845,10.3558,10.396133530308276
18036.0,1.753401,1.73063,-0.022771,0.4707,0.7845,10.3166,10.357086187726738
18046.0,1.703521,1.677496,-0.026025,0.4707,0.7453,10.3166,10.354190752540731
18056.0,1.717617,1.691593,-0.026025,0.4707,0.7453,10.3166,10.354190752540731
18066.0,1.723039,1.699183,-0.023856,0.4707,0.7453,10.3558,10.39324897325182
18076.0,1.708943,1.687255,-0.021687,0.5099,0.7453,10.3558,10.395098063029517
18086.0,1.737136,1.715449,-0.021687,0.5099,0.7845,10.2774,10.31990256833852
18096.0,1.724123,1.699183,-0.02494,0.4707,0.7845,10.2774,10.318040002829996
18106.0,1.725208,1.71328,-0.011928,0.5099,0.7845,10.3166,10.358941732628868
18116.0,1.73063,1.725208,-0.005422,0.5099,0.7845,10.3558,10.397982107120592
18126.0,1.723039,1.712196,-0.010844,0.5099,0.7453,10.3166,10.356046816232533
18136.0,1.742558,1.73822,-0.004337,0.5099,0.7453,10.395,10.43415042540599
18146.0,1.733883,1.723039,-0.010844,0.5099,0.7845,10.3166,10.358941732628868
18156.0,1.741473,1.729545,-0.011928,0.4707,0.7453,10.3166,10.354190752540731
18166.0,1.752317,1.741473,-0.010844,0.4707,0.7453,10.3166,10.354190752540731
18176.0,1.743642,1.726292,-0.01735,0.4707,0.7453,10.3558,10.39324897325182
18186.0,1.756654,1.751232,-0.005422,0.5099,0.7453,10.3558,10.395098063029517
18196.0,1.746895,1.739304,-0.00759,0.5099,0.8238,10.3166,10.361992086949304
18206.0,1.752317,1.740389,-0.011928,0.5099,0.7845,10.3558,10.397982107120592
18216.0,1.760992,1.753401,-0.00759,0.5099,0.7061,10.3166,10.353299511749864
18226.0,1.745811,1.739304,-0.006506,0.5099,0.7453,10.3166,10.356046816232533
18236.0,1.758823,1.765329,0.006506,0.4707,0.7453,10.2774,10.315133607472083
18246.0,1.752317,1.756654,0.004337,0.5099,0.7845,10.3166,10.358941732628868
18256.0,1.756654,1.760992,0.004337,0.4707,0.7845,10.2774,10.318040002829996
18266.0,1.766413,1.776173,0.009759,0.5099,0.7845,10.3166,10.358941732628868
18276.0,1.757738,1.753401,-0.004337,0.4707,0.7453,10.3166,10.354190752540731
18286.0,1.776173,1.776173,0.0,0.4707,0.7845,10.2774,10.318040002829996
18296.0,1.766413,1.766413,0.0,0.5099,0.7845,10.3166,10.358941732628868
18306.0,1.768582,1.769666,0.001084,0.5099,0.7453,10.3166,10.356046816232533
18316.0,1.782679,1.782679,0.0,0.4707,0.7845,10.3558,10.396133530308276
18326.0,1.769666,1.762076,-0.00759,0.4707,0.7453,10.2774,10.315133607472083
18336.0,1.784847,1.785932,0.001084,0.5099,0.7845,10.3166,10.358941732628868
18346.0,1.777257,1.778341,0.001084,0.4707,0.7453,10.395,10.432308257523834
18356.0,1.781594,1.781594,0.0,0.4707,0.7453,10.2774,10.315133607472083
18366.0,1.794607,1.798944,0.004337,0.4707,0.7453,10.2774,10.315133607472083
18376.0,1.78051,1.781594,0.001084,0.5099,0.8238,10.3166,10.361992086949304
18386.0,1.798944,1.801113,0.002169,0.5099,0.7453,10.3166,10.356046816232533
18396.0,1.7881,1.790269,0.002169,0.5099,0.7453,10.3558,10.395098063029517
18406.0,1.781594,1.792438,0.010844,0.5099,0.7845,10.3558,10.397982107120592
18416.0,1.794607,1.809787,0.015181,0.5099,0.7845,10.3558,10.397982107120592
18426.0,1.782679,1.791353,0.008675,0.5099,0.7453,10.3166,10.356046816232533
18436.0,1.804366,1.814125,0.009759,0.4707,0.7453,10.2774,10.315133607472083
18446.0,1.791353,1.804366,0.013012,0.5099,0.7845,10.3558,10.397982107120592
18456.0,1.795691,1.804366,0.008675,0.5099,0.7453,10.3166,10.356046816232533
18466.0,1.804366,1.8228,0.018434,0.5099,0.7453,10.3166,10.356046816232533
18476.0,1.790269,1.804366,0.014097,0.5099,0.7845,10.2774,10.31990256833852
18486.0,1.809787,1.8228,0.013012,0.5099,0.7453,10.3166,10.356046816232533
18496.0,1.804366,1.814125,0.009759,0.5099,0.7453,10.2774,10.316996697682907
18506.0,1.802197,1.809787,0.00759,0.4707,0.7453,10.3166,10.354190752540731
18516.0,1.809787,1.828222,0.018434,0.4707,0.7845,10.3558,10.396133530308276
18526.0,1.795691,1.802197,0.006506,0.5099,0.7845,10.3558,10.397982107120592
18536.0,1.826053,1.853162,0.027109,0.4707,0.7845,10.3166,10.357086187726738
18546.0,1.866174,1.903042,0.036868,0.4707,0.7453,10.3558,10.39324897325182
18556.0,1.895451,1.944247,0.048796,0.5099,0.7845,10.3166,10.358941732628868
18566.0,1.929066,1.996296,0.06723,0.5099,0.7453,10.2774,10.316996697682907
18576.0,1.903042,1.962681,0.059639,0.5099,0.7453,10.3166,10.356046816232533
18586.0,1.893283,1.93991,0.046627,0.5099,0.7453,10.3558,10.395098063029517
18596.0,1.849909,1.871596,0.021687,0.5099,0.7453,10.2774,10.316996697682907
18606.0,1.798944,1.808703,0.009759,0.5099,0.7845,10.3166,10.358941732628868
18616.0,1.796775,1.802197,0.005422,0.5099,0.7453,10.3166,10.356046816232533
18626.0,1.784847,1.790269,0.005422,0.4707,0.7845,10.3166,10.357086187726738
18636.0,1.795691,1.808703,0.013012,0.5099,0.7453,10.2774,10.316996697682907
18646.0,1.795691,1.800028,0.004337,0.5099,0.7845,10.3558,10.397982107120592
18656.0,1.793522,1.794607,0.001084,0.5099,0.7845,10.3166,10.358941732628868
18666.0,1.804366,1.809787,0.005422,0.5099,0.7845,10.2774,10.31990256833852
18676.0,1.793522,1.792438,-0.001084,0.4707,0.7453,10.3558,10.39324897325182
18686.0,1.800028,1.801113,0.001084,0.4707,0.7453,10.3166,10.354190752540731
18696.0,1.679665,1.682918,0.003253,0.5099,0.7845,10.3166,10.358941732628868
18706.0,1.740389,1.757738,0.01735,0.4707,0.7845,10.3166,10.357086187726738
18716.0,2.280397,2.41811,0.137713,0.5099,0.7453,10.3558,10.395098063029517
18726.0,2.695705,2.960288,0.264582,0.4707,0.7845,10.3166,10.357086187726738
18736.0,2.289072,2.463653,0.174581,0.5099,0.7453,10.3558,10.395098063029517
18746.0,1.740389,1.725208,-0.015181,0.4707,0.7845,10.3166,10.357086187726738
18756.0,1.626532,1.584242,-0.04229,0.4707,0.7453,10.3166,10.354190752540731
18766.0,1.749064,1.725208,-0.023856,0.5099,0.7845,10.2774,10.31990256833852
18776.0,1.751232,1.725208,-0.026025,0.4707,0.7845,10.3166,10.357086187726738
18786.0,1.753401,1.737136,-0.016265,0.5099,0.7453,10.3558,10.395098063029517
18796.0,1.75557,1.742558,-0.013012,0.4707,0.8238,10.3166,10.360137088378705
18806.0,1.754485,1.732798,-0.021687,0.5099,0.7453,10.2774,10.316996697682907
18816.0,1.766413,1.754485,-0.011928,0.4707,0.7453,10.3558,10.39324897325182
18826.0,1.75557,1.737136,-0.018434,0.4707,0.7453,10.3558,10.39324897325182
18836.0,1.767498,1.749064,-0.018434,0.4707,0.7453,10.3558,10.39324897325182
18846.0,1.765329,1.75557,-0.009759,0.5099,0.7845,10.4343,10.476166032953087
18856.0,1.756654,1.750148,-0.006506,0.4707,0.7453,10.3166,10.354190752540731
18866.0,1.771835,1.770751,-0.001084,0.5099,0.7453,10.2774,10.316996697682907
18876.0,1.760992,1.749064,-0.011928,0.5099,0.7453,10.3558,10.395098063029517
18886.0,1.770751,1.772919,0.002169,0.4707,0.7453,10.3166,10.354190752540731
18896.0,1.8228,1.819547,-0.003253,0.4707,0.7453,10.3558,10.39324897325182
18906.0,1.860752,1.867258,0.006506,0.4707,0.7845,10.3166,10.357086187726738
18916.0,1.919307,1.943163,0.023856,0.5099,0.7453,10.3558,10.395098063029517
18926.0,1.938826,1.971356,0.032531,0.4707,0.7845,10.3166,10.357086187726738
18936.0,1.977862,2.019068,0.041205,0.4707,0.7453,10.3166,10.354190752540731
18946.0,2.006056,2.048345,0.04229,0.5099,0.7845,10.3558,10.397982107120592
18956.0,1.99955,2.040755,0.041205,0.5099,0.7845,10.3558,10.397982107120592
18966.0,2.013646,2.064611,0.050965,0.4707,0.7845,10.3166,10.357086187726738
18976.0,1.991959,2.03208,0.040121,0.5099,0.7453,10.3558,10.395098063029517
18986.0,1.958344,2.001718,0.043374,0.5492,0.7453,10.3166,10.358056202299734
18996.0,1.925813,1.954007,0.028193,0.5099,0.8238,10.3166,10.361992086949304
19006.0,1.868343,1.881355,0.013012,0.5099,0.7453,10.3558,10.395098063029517
19016.0,1.840149,1.84774,0.00759,0.5099,0.7453,10.3166,10.356046816232533
19026.0,1.785932,1.772919,-0.013012,0.5099,0.7453,10.2774,10.316996697682907
19036.0,1.743642,1.725208,-0.018434,0.5099,0.7061,10.3166,10.353299511749864
19046.0,1.708943,1.699183,-0.009759,0.5492,0.7453,10.3558,10.397099901895722
19056.0,1.697015,1.682918,-0.014097,0.5492,0.7061,10.3166,10.355309430915137
19066.0,1.725208,1.706774,-0.018434,0.4707,0.7845,10.2381,10.278895385691985
19076.0,1.715449,1.692677,-0.022771,0.5099,0.7453,10.2774,10.316996697682907
19086.0,1.717617,1.704605,-0.013012,0.4707,0.7845,10.2774,10.318040002829996
19096.0,1.725208,1.71328,-0.011928,0.5099,0.7061,10.3166,10.353299511749864
19106.0,1.717617,1.699183,-0.018434,0.4315,0.7845,10.3166,10.355378701911388
19116.0,1.73822,1.728461,-0.009759,0.4707,0.7453,10.3558,10.39324897325182
19126.0,1.725208,1.723039,-0.002169,0.5099,0.7453,10.3166,10.356046816232533
19136.0,1.731714,1.724123,-0.00759,0.4315,0.7453,10.3166,10.35248278916705
19146.0,1.744726,1.731714,-0.013012,0.5099,0.7453,10.3558,10.395098063029517
19156.0,1.727377,1.723039,-0.004337,0.4707,0.7845,10.3166,10.357086187726738
19166.0,1.753401,1.744726,-0.008675,0.5099,0.8238,10.2774,10.322964458429565
19176.0,1.745811,1.733883,-0.011928,0.4315,0.7845,10.3166,10.355378701911388
19186.0,1.746895,1.739304,-0.00759,0.4707,0.7453,10.3558,10.39324897325182
19196.0,1.756654,1.751232,-0.005422,0.4707,0.7845,10.3166,10.357086187726738
19206.0,1.742558,1.737136,-0.005422,0.5099,0.7061,10.3166,10.353299511749864
19216.0,1.762076,1.759907,-0.002169,0.4707,0.7453,10.3558,10.39324897325182
19226.0,1.752317,1.751232,-0.001084,0.4315,0.7845,10.3558,10.394432458773302
19236.0,1.753401,1.753401,0.0,0.5099,0.7453,10.3166,10.356046816232533
19246.0,1.770751,1.769666,-0.001084,0.5099,0.7061,10.3558,10.392361082064076
19256.0,1.753401,1.753401,0.0,0.4707,0.7061,10.395,10.429581041441693
19266.0,1.772919,1.777257,0.004337,0.5492,0.7453,10.3166,10.358056202299734
19276.0,1.768582,1.770751,0.002169,0.5099,0.7453,10.395,10.43415042540599
19286.0,1.766413,1.76316,-0.003253,0.4315,0.7845,10.3166,10.355378701911388
19296.0,1.776173,1.781594,0.005422,0.4707,0.7845,10.2774,10.318040002829996
19306.0,1.767498,1.762076,-0.005422,0.5492,0.7453,10.3166,10.358056202299734
19316.0,1.787016,1.787016,0.0,0.5099,0.7453,10.3166,10.356046816232533
19326.0,1.781594,1.774004,-0.00759,0.4315,0.7845,10.3166,10.355378701911388
19336.0,1.78051,1.776173,-0.004337,0.4707,0.7453,10.2774,10.315133607472083
19346.0,1.791353,1.791353,0.0,0.4707,0.7453,10.3166,10.354190752540731
19356.0,1.78051,1.769666,-0.010844,0.5099,0.7845,10.3166,10.358941732628868
19366.0,1.794607,1.798944,0.004337,0.4707,0.7453,10.3166,10.354190752540731
19376.0,1.790269,1.787016,-0.003253,0.4315,0.7845,10.2774,10.316326054366447
19386.0,1.782679,1.784847,0.002169,0.4707,0.7845,10.3166,10.357086187726738
19396.0,1.796775,1.808703,0.011928,0.4707,0.7845,10.3558,10.396133530308276
19406.0,1.776173,1.781594,0.005422,0.4707,0.8238,10.3166,10.360137088378705
19416.0,1.79786,1.801113,0.003253,0.4707,0.7845,10.3166,10.357086187726738
19426.0,1.792438,1.795691,0.003253,0.4707,0.7845,10.3166,10.357086187726738
19436.0,1.794607,1.794607,0.0,0.4707,0.7845,10.3166,10.357086187726738
19446.0,1.798944,1.811956,0.013012,0.5099,0.7845,10.2774,10.31990256833852
19456.0,1.784847,1.791353,0.006506,0.5099,0.7845,10.3558,10.397982107120592
19466.0,1.802197,1.814125,0.011928,0.4707,0.7845,10.3166,10.357086187726738
19476.0,1.79786,1.811956,0.014097,0.5099,0.7845,10.3166,10.358941732628868
19486.0,1.794607,1.801113,0.006506,0.5099,0.7845,10.3558,10.397982107120592
19496.0,1.809787,1.823884,0.014097,0.4707,0.7453,10.2774,10.315133607472083
19506.0,1.789185,1.807619,0.018434,0.5099,0.7453,10.3166,10.356046816232533
19516.0,1.809787,1.8228,0.013012,0.5492,0.7845,10.3558,10.399983390852123
19526.0,1.80545,1.809787,0.004337,0.4707,0.7845,10.2774,10.318040002829996
19536.0,1.824968,1.826053,0.001084,0.5099,0.7453,10.3558,10.395098063029517
19546.0,1.882439,1.908464,0.026025,0.4707,0.7845,10.4343,10.474331254547948